#time,accel_x,accel_y,accel_z
353.693050,114.855485,210.568389,9858.429112
353.695886,19.142581,267.996131,9801.001370
353.698721,57.427742,248.853550,9934.999435
353.701556,57.427742,306.281293,9896.714274
353.704391,114.855485,229.710970,9858.429112
353.707226,57.427742,191.425808,9954.142016
353.710062,57.427742,210.568389,9934.999435
353.712897,95.712904,248.853550,9839.286531
353.715732,57.427742,114.855485,9858.429112
353.718567,114.855485,95.712904,9801.001370
353.721403,38.285162,153.140646,9896.714274
353.724238,38.285162,76.570323,9801.001370
353.727073,19.142581,229.710970,9839.286531
353.729908,76.570323,210.568389,9877.571693
353.732744,57.427742,133.998066,9743.573627
353.735579,76.570323,76.570323,9781.858789
353.738414,95.712904,57.427742,9896.714274
353.741249,114.855485,248.853550,9705.288466
353.744085,95.712904,248.853550,9934.999435
353.746920,95.712904,267.996131,9915.856854
353.749755,76.570323,210.568389,9877.571693
353.752590,76.570323,172.283227,9934.999435
353.755426,133.998066,76.570323,9954.142016
353.758261,172.283227,114.855485,9915.856854
353.760976,19.142581,153.140646,9896.714274
353.763691,76.570323,210.568389,9877.571693
353.766406,57.427742,153.140646,9934.999435
353.769122,19.142581,133.998066,9858.429112
353.771837,57.427742,229.710970,9781.858789
353.774552,76.570323,172.283227,9762.716208
353.777267,57.427742,153.140646,9762.716208
353.779983,172.283227,76.570323,9762.716208
353.782698,57.427742,114.855485,9820.143950
353.785413,19.142581,248.853550,9781.858789
353.788128,114.855485,248.853550,9724.431046
353.790844,76.570323,210.568389,9820.143950
353.793559,95.712904,248.853550,9934.999435
353.796274,19.142581,95.712904,9954.142016
353.798989,57.427742,153.140646,9934.999435
353.801705,38.285162,210.568389,9915.856854
353.804420,76.570323,172.283227,9877.571693
353.807135,153.140646,248.853550,9934.999435
353.809850,76.570323,114.855485,9877.571693
353.812566,114.855485,153.140646,9877.571693
353.815281,57.427742,248.853550,9934.999435
353.817996,114.855485,172.283227,9858.429112
353.820711,114.855485,172.283227,9820.143950
353.823427,153.140646,287.138712,9801.001370
353.826142,57.427742,153.140646,9762.716208
353.828857,114.855485,76.570323,9724.431046
353.831572,76.570323,153.140646,9820.143950
353.834288,19.142581,114.855485,9820.143950
353.837003,76.570323,191.425808,9762.716208
353.839718,76.570323,172.283227,9839.286531
353.842433,57.427742,95.712904,9896.714274
353.845148,114.855485,210.568389,9839.286531
353.847864,19.142581,191.425808,9896.714274
353.850579,95.712904,172.283227,9858.429112
353.853294,38.285162,248.853550,9762.716208
353.856009,19.142581,191.425808,9839.286531
353.858725,114.855485,172.283227,9839.286531
353.861440,76.570323,114.855485,9820.143950
353.864155,57.427742,172.283227,9801.001370
353.866870,76.570323,229.710970,9877.571693
353.869513,38.285162,191.425808,9896.714274
353.872155,76.570323,172.283227,9858.429112
353.874797,19.142581,153.140646,9915.856854
353.877439,57.427742,229.710970,9858.429112
353.880082,19.142581,191.425808,9858.429112
353.882724,38.285162,76.570323,9858.429112
353.885366,95.712904,133.998066,9934.999435
353.888008,57.427742,133.998066,9877.571693
353.890650,19.142581,153.140646,9820.143950
353.893293,95.712904,153.140646,9762.716208
353.895935,57.427742,191.425808,9743.573627
353.898577,153.140646,95.712904,9839.286531
353.901219,19.142581,95.712904,9858.429112
353.903862,153.140646,95.712904,9820.143950
353.906504,76.570323,76.570323,9915.856854
353.909146,76.570323,172.283227,9839.286531
353.911788,57.427742,229.710970,9896.714274
353.914430,95.712904,210.568389,9858.429112
353.917073,76.570323,210.568389,9858.429112
353.919715,57.427742,172.283227,9954.142016
353.922357,153.140646,114.855485,9896.714274
353.924999,76.570323,172.283227,9877.571693
353.927642,57.427742,153.140646,9973.284597
353.930284,114.855485,191.425808,9934.999435
353.932926,19.142581,287.138712,9934.999435
353.935568,38.285162,76.570323,9858.429112
353.938211,19.142581,191.425808,9781.858789
353.940853,114.855485,210.568389,9877.571693
353.943495,57.427742,133.998066,9667.003304
353.946137,95.712904,153.140646,9762.716208
353.948779,38.285162,114.855485,9724.431046
353.951422,76.570323,172.283227,9877.571693
353.954064,57.427742,306.281293,9781.858789
353.956706,-19.142581,133.998066,9820.143950
353.959348,57.427742,344.566454,9896.714274
353.961991,76.570323,153.140646,9877.571693
353.964633,76.570323,172.283227,9743.573627
353.967275,76.570323,114.855485,9839.286531
353.969917,153.140646,95.712904,9839.286531
353.972559,114.855485,133.998066,9934.999435
353.975152,76.570323,287.138712,9973.284597
353.977746,38.285162,172.283227,9973.284597
353.980341,57.427742,248.853550,10011.569758
353.982935,114.855485,114.855485,9820.143950
353.985530,76.570323,172.283227,9820.143950
353.988124,57.427742,248.853550,9743.573627
353.990719,95.712904,172.283227,9858.429112
353.993314,114.855485,287.138712,9801.001370
353.995908,-38.285162,153.140646,9801.001370
353.998503,57.427742,306.281293,9896.714274
354.001097,76.570323,76.570323,9896.714274
354.003692,76.570323,210.568389,9839.286531
354.006286,57.427742,57.427742,9781.858789
354.008881,95.712904,229.710970,9781.858789
354.011475,19.142581,172.283227,9781.858789
354.014070,114.855485,172.283227,9858.429112
354.016665,19.142581,153.140646,9896.714274
354.019259,95.712904,229.710970,9839.286531
354.021854,133.998066,76.570323,9896.714274
354.024448,76.570323,114.855485,9877.571693
354.027043,57.427742,114.855485,9801.001370
354.029637,114.855485,153.140646,10011.569758
354.032232,19.142581,229.710970,9820.143950
354.034826,76.570323,153.140646,9877.571693
354.037421,172.283227,248.853550,9934.999435
354.040015,57.427742,95.712904,10011.569758
354.042610,114.855485,153.140646,9762.716208
354.045205,-19.142581,76.570323,9839.286531
354.047799,133.998066,153.140646,9858.429112
354.050394,114.855485,38.285162,9896.714274
354.052988,114.855485,210.568389,9820.143950
354.055583,57.427742,95.712904,9839.286531
354.058177,114.855485,114.855485,9820.143950
354.060772,38.285162,76.570323,9762.716208
354.063366,153.140646,133.998066,9743.573627
354.065961,19.142581,153.140646,9781.858789
354.068556,19.142581,153.140646,9839.286531
354.071150,57.427742,172.283227,9820.143950
354.073745,-0.000000,133.998066,9896.714274
354.076339,76.570323,172.283227,9839.286531
354.078698,57.427742,95.712904,9915.856854
354.081057,95.712904,114.855485,9762.716208
354.083416,57.427742,95.712904,9839.286531
354.085776,191.425808,210.568389,9877.571693
354.088135,153.140646,133.998066,9934.999435
354.090494,153.140646,287.138712,9839.286531
354.092853,57.427742,114.855485,9839.286531
354.095212,95.712904,287.138712,9896.714274
354.097571,114.855485,114.855485,9858.429112
354.099930,114.855485,76.570323,9915.856854
354.102289,57.427742,95.712904,9801.001370
354.104648,114.855485,210.568389,9877.571693
354.107007,114.855485,172.283227,9762.716208
354.109366,57.427742,133.998066,9743.573627
354.111725,114.855485,114.855485,9820.143950
354.114085,19.142581,153.140646,9858.429112
354.116444,57.427742,248.853550,9724.431046
354.118803,76.570323,210.568389,9801.001370
354.121162,191.425808,153.140646,9839.286531
354.123521,95.712904,76.570323,9915.856854
354.125880,76.570323,210.568389,9877.571693
354.128239,76.570323,229.710970,9820.143950
354.130598,57.427742,191.425808,9934.999435
354.132957,133.998066,172.283227,9858.429112
354.135316,95.712904,287.138712,9839.286531
354.137675,19.142581,133.998066,9839.286531
354.140034,38.285162,172.283227,9915.856854
354.142394,95.712904,191.425808,9934.999435
354.144753,57.427742,191.425808,9934.999435
354.147112,76.570323,248.853550,9801.001370
354.149471,76.570323,172.283227,9934.999435
354.151830,114.855485,229.710970,9820.143950
354.154189,57.427742,95.712904,9896.714274
354.156548,153.140646,229.710970,9781.858789
354.158907,19.142581,114.855485,9858.429112
354.161266,19.142581,248.853550,9801.001370
354.163625,19.142581,133.998066,9781.858789
354.165984,76.570323,210.568389,9877.571693
354.168343,57.427742,172.283227,9858.429112
354.170703,95.712904,95.712904,9801.001370
354.173128,114.855485,172.283227,9877.571693
354.175553,38.285162,210.568389,9973.284597
354.177978,76.570323,229.710970,9820.143950
354.180404,19.142581,191.425808,9896.714274
354.182829,133.998066,229.710970,9820.143950
354.185254,76.570323,172.283227,9877.571693
354.187679,19.142581,114.855485,9877.571693
354.190105,57.427742,172.283227,9934.999435
354.192530,57.427742,248.853550,9934.999435
354.194955,76.570323,210.568389,9877.571693
354.197380,133.998066,210.568389,9762.716208
354.199806,-57.427742,76.570323,9762.716208
354.202231,114.855485,210.568389,9877.571693
354.204656,76.570323,114.855485,9820.143950
354.207081,38.285162,114.855485,9915.856854
354.209507,19.142581,210.568389,9781.858789
354.211932,95.712904,191.425808,9934.999435
354.214357,114.855485,229.710970,9820.143950
354.216782,76.570323,172.283227,9801.001370
354.219208,57.427742,95.712904,9858.429112
354.221633,76.570323,38.285162,9896.714274
354.224058,95.712904,172.283227,9839.286531
354.226483,114.855485,114.855485,9858.429112
354.228909,133.998066,172.283227,9934.999435
354.231334,114.855485,76.570323,9915.856854
354.233759,19.142581,153.140646,9801.001370
354.236184,19.142581,210.568389,9781.858789
354.238610,76.570323,210.568389,9858.429112
354.241035,133.998066,114.855485,9877.571693
354.243460,76.570323,153.140646,9839.286531
354.245885,133.998066,95.712904,9934.999435
354.248311,57.427742,153.140646,10011.569758
354.250736,95.712904,287.138712,9820.143950
354.253161,19.142581,248.853550,9801.001370
354.255586,76.570323,153.140646,9877.571693
354.258012,38.285162,114.855485,9915.856854
354.260437,57.427742,95.712904,9781.858789
354.262862,19.142581,38.285162,9915.856854
354.265287,133.998066,172.283227,9877.571693
354.267713,76.570323,114.855485,9858.429112
354.270180,76.570323,210.568389,9801.001370
354.272648,57.427742,133.998066,9762.716208
354.275115,76.570323,210.568389,9839.286531
354.277582,114.855485,114.855485,9877.571693
354.280050,57.427742,114.855485,9801.001370
354.282517,153.140646,114.855485,9801.001370
354.284985,76.570323,114.855485,9877.571693
354.287452,57.427742,114.855485,9839.286531
354.289920,76.570323,210.568389,9839.286531
354.292387,133.998066,191.425808,9839.286531
354.294855,76.570323,267.996131,9915.856854
354.297322,191.425808,210.568389,9877.571693
354.299790,19.142581,191.425808,9896.714274
354.302257,95.712904,153.140646,9877.571693
354.304725,-0.000000,153.140646,9896.714274
354.307192,95.712904,210.568389,9858.429112
354.309660,57.427742,95.712904,9801.001370
354.312127,114.855485,287.138712,9858.429112
354.314594,76.570323,172.283227,9762.716208
354.317062,76.570323,210.568389,9820.143950
354.319529,57.427742,95.712904,9858.429112
354.321997,19.142581,153.140646,9839.286531
354.324464,95.712904,287.138712,9762.716208
354.326932,38.285162,191.425808,9839.286531
354.329399,191.425808,248.853550,9820.143950
354.331867,57.427742,153.140646,9973.284597
354.334334,153.140646,95.712904,9801.001370
354.336802,-0.000000,133.998066,9896.714274
354.339269,172.283227,210.568389,9896.714274
354.341737,38.285162,172.283227,10011.569758
354.344204,153.140646,267.996131,9934.999435
354.346671,38.285162,153.140646,9915.856854
354.349139,38.285162,248.853550,9858.429112
354.351606,57.427742,57.427742,9839.286531
354.354074,76.570323,172.283227,9801.001370
354.356541,95.712904,133.998066,9954.142016
354.359009,38.285162,267.996131,9858.429112
354.361476,76.570323,191.425808,9762.716208
354.363944,57.427742,172.283227,9934.999435
354.366411,133.998066,172.283227,9801.001370
354.368771,19.142581,133.998066,9839.286531
354.371131,95.712904,95.712904,9781.858789
354.373491,38.285162,76.570323,9762.716208
354.375851,95.712904,172.283227,9858.429112
354.378211,19.142581,153.140646,9858.429112
354.380571,95.712904,229.710970,9820.143950
354.382931,38.285162,210.568389,9915.856854
354.385291,153.140646,248.853550,9934.999435
354.387651,114.855485,95.712904,9896.714274
354.390011,114.855485,153.140646,9877.571693
354.392371,76.570323,172.283227,9877.571693
354.394730,76.570323,210.568389,9877.571693
354.397090,95.712904,191.425808,9858.429112
354.399450,114.855485,229.710970,9877.571693
354.401810,76.570323,172.283227,9839.286531
354.404170,114.855485,153.140646,9877.571693
354.406530,76.570323,114.855485,9762.716208
354.408890,95.712904,114.855485,9877.571693
354.411250,19.142581,172.283227,9877.571693
354.413610,38.285162,76.570323,9877.571693
354.415970,114.855485,114.855485,9762.716208
354.418330,133.998066,172.283227,9820.143950
354.420690,95.712904,172.283227,9820.143950
354.423050,95.712904,114.855485,9820.143950
354.425410,95.712904,114.855485,9839.286531
354.427770,38.285162,76.570323,9820.143950
354.430130,114.855485,133.998066,9877.571693
354.432490,76.570323,114.855485,9762.716208
354.434849,76.570323,191.425808,9858.429112
354.437209,76.570323,210.568389,9820.143950
354.439569,76.570323,153.140646,9877.571693
354.441929,114.855485,191.425808,9820.143950
354.444289,57.427742,95.712904,9839.286531
354.446649,95.712904,114.855485,9801.001370
354.449009,38.285162,76.570323,9877.571693
354.451369,19.142581,191.425808,9801.001370
354.453729,19.142581,153.140646,9839.286531
354.456089,153.140646,287.138712,9896.714274
354.458449,95.712904,172.283227,9934.999435
354.460809,114.855485,229.710970,9820.143950
354.463231,19.142581,95.712904,9896.714274
354.465654,76.570323,172.283227,9877.571693
354.468077,76.570323,133.998066,9724.431046
354.470499,95.712904,248.853550,9820.143950
354.472922,191.425808,153.140646,9781.858789
354.475345,19.142581,153.140646,9896.714274
354.477767,114.855485,114.855485,9762.716208
354.480190,76.570323,114.855485,9877.571693
354.482612,38.285162,114.855485,9839.286531
354.485035,19.142581,191.425808,9877.571693
354.487458,114.855485,210.568389,9743.573627
354.489880,95.712904,210.568389,9858.429112
354.492303,133.998066,210.568389,9877.571693
354.494726,38.285162,114.855485,9839.286531
354.497148,76.570323,153.140646,9820.143950
354.499571,76.570323,172.283227,9820.143950
354.501994,95.712904,267.996131,9915.856854
354.504416,19.142581,133.998066,9896.714274
354.506839,114.855485,229.710970,9858.429112
354.509261,76.570323,172.283227,9896.714274
354.511684,57.427742,229.710970,9858.429112
354.514107,95.712904,287.138712,9781.858789
354.516529,38.285162,76.570323,9820.143950
354.518952,133.998066,114.855485,9820.143950
354.521375,114.855485,210.568389,9858.429112
354.523797,57.427742,287.138712,9896.714274
354.526220,95.712904,229.710970,9839.286531
354.528643,76.570323,191.425808,9877.571693
354.531065,19.142581,133.998066,9801.001370
354.533488,57.427742,95.712904,9820.143950
354.535910,114.855485,95.712904,9896.714274
354.538333,76.570323,210.568389,9858.429112
354.540756,76.570323,267.996131,9915.856854
354.543178,114.855485,363.709035,9724.431046
354.545601,191.425808,210.568389,9858.429112
354.548024,133.998066,133.998066,9896.714274
354.550446,229.710970,38.285162,9801.001370
354.552869,19.142581,114.855485,9934.999435
354.555292,76.570323,287.138712,9858.429112
354.557714,19.142581,229.710970,9934.999435
354.560177,76.570323,248.853550,9781.858789
354.562640,114.855485,95.712904,9896.714274
354.565103,153.140646,153.140646,9934.999435
354.567566,57.427742,57.427742,9839.286531
354.570029,57.427742,153.140646,9686.145885
354.572492,95.712904,114.855485,9801.001370
354.574955,191.425808,191.425808,9896.714274
354.577418,76.570323,191.425808,9877.571693
354.579881,38.285162,248.853550,9762.716208
354.582344,76.570323,210.568389,9762.716208
354.584807,114.855485,153.140646,9877.571693
354.587270,114.855485,0.000000,9762.716208
354.589733,76.570323,153.140646,9839.286531
354.592196,153.140646,114.855485,9896.714274
354.594659,-19.142581,133.998066,9858.429112
354.597122,19.142581,248.853550,9801.001370
354.599585,76.570323,210.568389,9877.571693
354.602048,57.427742,248.853550,9877.571693
354.604511,114.855485,95.712904,9801.001370
354.606974,95.712904,95.712904,9839.286531
354.609437,38.285162,76.570323,9858.429112
354.611900,76.570323,172.283227,9858.429112
354.614363,133.998066,172.283227,9801.001370
354.616826,76.570323,191.425808,9877.571693
354.619289,19.142581,248.853550,9858.429112
354.621752,38.285162,267.996131,9839.286531
354.624215,57.427742,95.712904,9781.858789
354.626678,95.712904,38.285162,9820.143950
354.629141,57.427742,38.285162,9896.714274
354.631604,19.142581,172.283227,9839.286531
354.634067,114.855485,210.568389,9858.429112
354.636530,19.142581,229.710970,9877.571693
354.638993,57.427742,229.710970,9858.429112
354.641456,114.855485,0.000000,9896.714274
354.643919,57.427742,114.855485,9801.001370
354.646382,76.570323,38.285162,9896.714274
354.648845,114.855485,210.568389,9934.999435
354.651308,133.998066,114.855485,9877.571693
354.653771,76.570323,210.568389,9762.716208
354.656234,95.712904,229.710970,9877.571693
354.658627,95.712904,229.710970,9801.001370
354.661020,133.998066,133.998066,9801.001370
354.663413,76.570323,210.568389,9877.571693
354.665805,114.855485,210.568389,9877.571693
354.668198,76.570323,191.425808,9877.571693
354.670591,76.570323,172.283227,9801.001370
354.672984,19.142581,172.283227,9762.716208
354.675377,76.570323,210.568389,9858.429112
354.677770,38.285162,114.855485,9915.856854
354.680162,19.142581,191.425808,9781.858789
354.682555,38.285162,172.283227,9915.856854
354.684948,95.712904,229.710970,9858.429112
354.687341,76.570323,114.855485,9877.571693
354.689734,76.570323,210.568389,9762.716208
354.692127,95.712904,153.140646,9877.571693
354.694519,76.570323,210.568389,9877.571693
354.696912,95.712904,172.283227,9877.571693
354.699305,-57.427742,153.140646,9801.001370
354.701698,38.285162,38.285162,9858.429112
354.704091,-0.000000,153.140646,9915.856854
354.706484,76.570323,229.710970,9820.143950
354.708876,19.142581,248.853550,9858.429112
354.711269,19.142581,287.138712,9877.571693
354.713662,38.285162,153.140646,9915.856854
354.716055,38.285162,76.570323,9877.571693
354.718448,19.142581,95.712904,9934.999435
354.720841,19.142581,210.568389,9801.001370
354.723233,57.427742,229.710970,9896.714274
354.725626,76.570323,287.138712,9820.143950
354.728019,114.855485,229.710970,9839.286531
354.730412,76.570323,210.568389,9762.716208
354.732805,95.712904,114.855485,9858.429112
354.735198,76.570323,114.855485,9820.143950
354.737590,19.142581,248.853550,9839.286531
354.739983,76.570323,210.568389,9877.571693
354.742376,114.855485,210.568389,9820.143950
354.744769,76.570323,172.283227,9877.571693
354.747162,19.142581,248.853550,9915.856854
354.749555,57.427742,133.998066,9877.571693
354.751948,57.427742,95.712904,9839.286531
354.754390,76.570323,114.855485,9877.571693
354.756832,76.570323,133.998066,9839.286531
354.759274,95.712904,210.568389,9858.429112
354.761717,95.712904,191.425808,9820.143950
354.764159,95.712904,210.568389,9858.429112
354.766601,114.855485,287.138712,9839.286531
354.769044,57.427742,57.427742,9896.714274
354.771486,95.712904,114.855485,9858.429112
354.773928,38.285162,76.570323,9877.571693
354.776371,-57.427742,229.710970,9915.856854
354.778813,95.712904,229.710970,9839.286531
354.781255,-19.142581,191.425808,9801.001370
354.783698,57.427742,172.283227,9954.142016
354.786140,76.570323,114.855485,9877.571693
354.788582,57.427742,57.427742,9781.858789
354.791025,19.142581,133.998066,9858.429112
354.793467,19.142581,133.998066,9896.714274
354.795909,57.427742,133.998066,9858.429112
354.798352,76.570323,229.710970,9762.716208
354.800794,114.855485,229.710970,9877.571693
354.803236,114.855485,153.140646,9839.286531
354.805679,76.570323,114.855485,9877.571693
354.808121,153.140646,95.712904,9858.429112
354.810563,57.427742,95.712904,9896.714274
354.813006,19.142581,191.425808,9896.714274
354.815448,19.142581,248.853550,9839.286531
354.817890,95.712904,229.710970,9820.143950
354.820333,114.855485,153.140646,9934.999435
354.822775,57.427742,95.712904,9896.714274
354.825217,114.855485,172.283227,9877.571693
354.827660,57.427742,95.712904,9839.286531
354.830102,76.570323,287.138712,9820.143950
354.832544,114.855485,172.283227,9877.571693
354.834987,114.855485,229.710970,9762.716208
354.837429,172.283227,95.712904,9896.714274
354.839871,95.712904,191.425808,9934.999435
354.842314,114.855485,114.855485,9820.143950
354.844756,76.570323,229.710970,9762.716208
354.847198,153.140646,133.998066,9801.001370
354.849641,19.142581,248.853550,9896.714274
354.852035,19.142581,191.425808,9896.714274
354.854430,38.285162,306.281293,9896.714274
354.856824,76.570323,153.140646,9839.286531
354.859218,57.427742,153.140646,9934.999435
354.861613,114.855485,153.140646,9820.143950
354.864007,133.998066,114.855485,9839.286531
354.866402,153.140646,287.138712,9801.001370
354.868796,19.142581,248.853550,9839.286531
354.871191,38.285162,267.996131,9801.001370
354.873585,76.570323,172.283227,9801.001370
354.875979,95.712904,229.710970,9858.429112
354.878374,57.427742,95.712904,9896.714274
354.880768,57.427742,153.140646,9705.288466
354.883163,57.427742,95.712904,9781.858789
354.885557,76.570323,287.138712,9934.999435
354.887952,76.570323,229.710970,9762.716208
354.890346,38.285162,306.281293,9801.001370
354.892741,114.855485,133.998066,9915.856854
354.895135,19.142581,191.425808,9896.714274
354.897529,76.570323,114.855485,9858.429112
354.899924,38.285162,76.570323,9820.143950
354.902318,133.998066,95.712904,9858.429112
354.904713,95.712904,210.568389,9877.571693
354.907107,57.427742,306.281293,9762.716208
354.909502,57.427742,287.138712,9896.714274
354.911896,133.998066,229.710970,9858.429112
354.914290,133.998066,19.142581,9934.999435
354.916685,95.712904,95.712904,9801.001370
354.919079,76.570323,114.855485,9820.143950
354.921474,76.570323,267.996131,9954.142016
354.923868,114.855485,229.710970,9858.429112
354.926263,-19.142581,191.425808,9839.286531
354.928657,76.570323,172.283227,9877.571693
354.931051,38.285162,76.570323,9858.429112
354.933446,57.427742,133.998066,9877.571693
354.935840,19.142581,172.283227,9781.858789
354.938235,95.712904,172.283227,9858.429112
354.940629,76.570323,172.283227,9839.286531
354.943024,57.427742,287.138712,9896.714274
354.945418,19.142581,210.568389,9858.429112
354.947778,38.285162,287.138712,9858.429112
354.950145,57.427742,57.427742,9839.286531
354.952512,95.712904,76.570323,9724.431046
354.954879,172.283227,95.712904,9896.714274
354.957246,57.427742,229.710970,9858.429112
354.959614,57.427742,114.855485,9839.286531
354.961981,-19.142581,267.996131,9820.143950
354.964348,95.712904,191.425808,9954.142016
354.966715,19.142581,153.140646,9858.429112
354.969082,114.855485,95.712904,9781.858789
354.971450,114.855485,95.712904,9781.858789
354.973817,57.427742,95.712904,9896.714274
354.976184,95.712904,172.283227,9877.571693
354.978551,133.998066,287.138712,9877.571693
354.980918,76.570323,172.283227,9839.286531
354.983286,76.570323,248.853550,9915.856854
354.985653,76.570323,76.570323,9915.856854
354.988020,19.142581,76.570323,9724.431046
354.990387,57.427742,114.855485,9858.429112
354.992754,57.427742,153.140646,9934.999435
354.995122,76.570323,172.283227,9762.716208
354.997489,38.285162,325.423874,9820.143950
354.999856,38.285162,191.425808,9915.856854
355.002223,19.142581,191.425808,9820.143950
355.004590,38.285162,114.855485,9915.856854
355.006958,76.570323,114.855485,9877.571693
355.009325,114.855485,114.855485,9896.714274
355.011692,-19.142581,133.998066,9896.714274
355.014059,57.427742,306.281293,9781.858789
355.016426,57.427742,229.710970,9896.714274
355.018794,57.427742,191.425808,9934.999435
355.021161,95.712904,38.285162,9896.714274
355.023528,76.570323,191.425808,9858.429112
355.025895,76.570323,172.283227,9877.571693
355.028262,95.712904,229.710970,9896.714274
355.030630,57.427742,191.425808,9762.716208
355.032997,38.285162,248.853550,9839.286531
355.035364,114.855485,114.855485,9858.429112
355.037731,-0.000000,133.998066,9858.429112
355.040099,19.142581,153.140646,9896.714274
355.042527,76.570323,172.283227,9858.429112
355.044955,76.570323,210.568389,9858.429112
355.047384,19.142581,191.425808,9896.714274
355.049812,95.712904,287.138712,9877.571693
355.052241,76.570323,191.425808,9839.286531
355.054669,38.285162,191.425808,9896.714274
355.057098,95.712904,76.570323,9915.856854
355.059526,76.570323,191.425808,9762.716208
355.061955,95.712904,114.855485,9839.286531
355.064383,95.712904,287.138712,9896.714274
355.066812,191.425808,153.140646,9781.858789
355.069240,57.427742,248.853550,9877.571693
355.071668,133.998066,172.283227,9877.571693
355.074097,76.570323,210.568389,9839.286531
355.076525,38.285162,153.140646,9839.286531
355.078954,38.285162,76.570323,9877.571693
355.081382,38.285162,133.998066,9801.001370
355.083811,19.142581,191.425808,9896.714274
355.086239,172.283227,306.281293,9781.858789
355.088668,19.142581,191.425808,9858.429112
355.091096,38.285162,229.710970,9915.856854
355.093525,-19.142581,76.570323,9877.571693
355.095953,76.570323,172.283227,9858.429112
355.098382,133.998066,76.570323,9915.856854
355.100810,57.427742,114.855485,9801.001370
355.103238,95.712904,210.568389,9801.001370
355.105667,114.855485,287.138712,9762.716208
355.108095,133.998066,114.855485,9858.429112
355.110524,76.570323,210.568389,9877.571693
355.112952,57.427742,114.855485,9896.714274
355.115381,76.570323,114.855485,9877.571693
355.117809,95.712904,229.710970,9820.143950
355.120238,153.140646,76.570323,9839.286531
355.122666,153.140646,210.568389,9762.716208
355.125095,76.570323,114.855485,9839.286531
355.127523,-19.142581,325.423874,9858.429112
355.129951,95.712904,133.998066,9934.999435
355.132380,114.855485,210.568389,9858.429112
355.134808,19.142581,133.998066,9839.286531
355.137237,133.998066,229.710970,9877.571693
355.139711,19.142581,153.140646,9839.286531
355.142185,19.142581,191.425808,9801.001370
355.144660,76.570323,172.283227,9934.999435
355.147134,114.855485,153.140646,9762.716208
355.149608,76.570323,210.568389,9820.143950
355.152082,76.570323,172.283227,9877.571693
355.154557,19.142581,153.140646,9781.858789
355.157031,19.142581,133.998066,9781.858789
355.159505,76.570323,114.855485,9820.143950
355.161980,38.285162,210.568389,9724.431046
355.164454,38.285162,172.283227,9705.288466
355.166928,172.283227,133.998066,9954.142016
355.169402,57.427742,229.710970,9839.286531
355.171877,38.285162,76.570323,9820.143950
355.174351,95.712904,153.140646,9934.999435
355.176825,38.285162,114.855485,9954.142016
355.179299,229.710970,38.285162,9801.001370
355.181774,153.140646,38.285162,9896.714274
355.184248,57.427742,95.712904,9801.001370
355.186722,172.283227,114.855485,10011.569758
355.189196,19.142581,248.853550,9801.001370
355.191671,19.142581,153.140646,9801.001370
355.194145,57.427742,191.425808,9934.999435
355.196619,76.570323,76.570323,9915.856854
355.199094,76.570323,76.570323,9781.858789
355.201568,57.427742,0.000000,9801.001370
355.204042,76.570323,172.283227,9820.143950
355.206516,57.427742,133.998066,9858.429112
355.208991,38.285162,114.855485,9724.431046
355.211465,19.142581,229.710970,9820.143950
355.213939,38.285162,172.283227,9915.856854
355.216413,19.142581,95.712904,9877.571693
355.218888,57.427742,114.855485,9839.286531
355.221362,229.710970,210.568389,9915.856854
355.223836,38.285162,114.855485,10030.712339
355.226311,76.570323,229.710970,9820.143950
355.228785,76.570323,172.283227,9858.429112
355.231259,114.855485,248.853550,9877.571693
355.233733,114.855485,172.283227,9877.571693
355.236208,76.570323,210.568389,9839.286531
355.238716,57.427742,133.998066,9839.286531
355.241224,76.570323,267.996131,9915.856854
355.243732,57.427742,95.712904,9858.429112
355.246240,19.142581,287.138712,9743.573627
355.248748,76.570323,114.855485,9839.286531
355.251256,38.285162,210.568389,9954.142016
355.253764,133.998066,114.855485,9820.143950
355.256272,38.285162,210.568389,9724.431046
355.258780,114.855485,287.138712,9839.286531
355.261288,38.285162,267.996131,9858.429112
355.263796,38.285162,248.853550,9705.288466
355.266304,57.427742,133.998066,9954.142016
355.268812,76.570323,229.710970,9877.571693
355.271320,57.427742,133.998066,9934.999435
355.273828,57.427742,306.281293,9781.858789
355.276337,38.285162,210.568389,9896.714274
355.278845,38.285162,363.709035,9877.571693
355.281353,95.712904,191.425808,9934.999435
355.283861,38.285162,210.568389,9915.856854
355.286369,76.570323,76.570323,9896.714274
355.288877,153.140646,267.996131,9934.999435
355.291385,95.712904,229.710970,9801.001370
355.293893,95.712904,287.138712,9781.858789
355.296401,191.425808,306.281293,9896.714274
355.298909,38.285162,229.710970,9954.142016
355.301417,114.855485,191.425808,9801.001370
355.303925,19.142581,153.140646,9858.429112
355.306433,76.570323,267.996131,9915.856854
355.308941,57.427742,0.000000,9858.429112
355.311449,76.570323,172.283227,9743.573627
355.313957,38.285162,76.570323,9801.001370
355.316466,-19.142581,248.853550,9896.714274
355.318974,114.855485,287.138712,9858.429112
355.321482,-76.570323,287.138712,9781.858789
355.323990,114.855485,95.712904,9839.286531
355.326498,-38.285162,133.998066,9896.714274
355.329006,114.855485,57.427742,9801.001370
355.331514,95.712904,210.568389,9801.001370
355.334022,76.570323,248.853550,9915.856854
355.336530,57.427742,191.425808,9934.999435
355.339063,114.855485,210.568389,9877.571693
355.341596,114.855485,57.427742,9896.714274
355.344129,114.855485,133.998066,9915.856854
355.346662,114.855485,95.712904,9858.429112
355.349195,95.712904,191.425808,9686.145885
355.351728,153.140646,57.427742,9820.143950
355.354261,57.427742,248.853550,9934.999435
355.356794,95.712904,210.568389,9839.286531
355.359327,38.285162,133.998066,9839.286531
355.361860,114.855485,76.570323,9896.714274
355.364393,38.285162,76.570323,9877.571693
355.366926,153.140646,57.427742,9801.001370
355.369458,-19.142581,114.855485,9647.860723
355.371991,95.712904,248.853550,9762.716208
355.374524,19.142581,172.283227,9896.714274
355.377057,114.855485,114.855485,9762.716208
355.379590,38.285162,19.142581,9858.429112
355.382123,76.570323,153.140646,10011.569758
355.384656,38.285162,38.285162,9877.571693
355.387189,38.285162,267.996131,9762.716208
355.389722,153.140646,95.712904,9839.286531
355.392255,76.570323,153.140646,9762.716208
355.394788,153.140646,57.427742,9896.714274
355.397321,38.285162,38.285162,9801.001370
355.399854,133.998066,172.283227,9877.571693
355.402387,-19.142581,229.710970,9915.856854
355.404920,133.998066,172.283227,9801.001370
355.407453,38.285162,153.140646,9724.431046
355.409986,133.998066,114.855485,9839.286531
355.412519,-0.000000,76.570323,9934.999435
355.415052,38.285162,153.140646,9801.001370
355.417585,19.142581,172.283227,9820.143950
355.420118,133.998066,172.283227,9896.714274
355.422651,-57.427742,95.712904,9896.714274
355.425184,76.570323,172.283227,9762.716208
355.427717,133.998066,114.855485,9839.286531
355.430250,19.142581,210.568389,9781.858789
355.432783,114.855485,191.425808,9934.999435
355.435315,38.285162,172.283227,9724.431046
355.437848,114.855485,114.855485,9839.286531
355.440399,76.570323,229.710970,9934.999435
355.442950,191.425808,248.853550,9839.286531
355.445500,57.427742,248.853550,9667.003304
355.448051,210.568389,191.425808,9781.858789
355.450602,114.855485,153.140646,9934.999435
355.453152,76.570323,229.710970,9801.001370
355.455703,-0.000000,153.140646,9858.429112
355.458254,95.712904,267.996131,9954.142016
355.460805,57.427742,133.998066,9934.999435
355.463355,153.140646,229.710970,9724.431046
355.465906,95.712904,172.283227,9820.143950
355.468457,114.855485,287.138712,9877.571693
355.471007,76.570323,229.710970,9877.571693
355.473558,19.142581,248.853550,9724.431046
355.476109,76.570323,229.710970,9858.429112
355.478659,-0.000000,229.710970,10011.569758
355.481210,114.855485,153.140646,9820.143950
355.483761,-0.000000,114.855485,9705.288466
355.486311,191.425808,287.138712,9762.716208
355.488862,76.570323,229.710970,9839.286531
355.491413,76.570323,229.710970,9762.716208
355.493963,57.427742,153.140646,9934.999435
355.496514,95.712904,248.853550,9992.427178
355.499065,19.142581,153.140646,9896.714274
355.501615,95.712904,287.138712,9781.858789
355.504166,191.425808,114.855485,9762.716208
355.506717,57.427742,210.568389,9839.286531
355.509267,95.712904,133.998066,9954.142016
355.511818,19.142581,248.853550,9820.143950
355.514369,95.712904,210.568389,9858.429112
355.516919,38.285162,172.283227,9915.856854
355.519470,153.140646,172.283227,9858.429112
355.522021,19.142581,95.712904,9686.145885
355.524571,191.425808,191.425808,9896.714274
355.527122,19.142581,95.712904,9934.999435
355.529673,114.855485,210.568389,9762.716208
355.532223,76.570323,172.283227,9858.429112
355.534774,95.712904,133.998066,9934.999435
355.537325,76.570323,76.570323,9934.999435
355.539875,114.855485,153.140646,9801.001370
355.542438,133.998066,95.712904,9801.001370
355.545001,76.570323,229.710970,9877.571693
355.547564,133.998066,172.283227,9858.429112
355.550128,19.142581,191.425808,9801.001370
355.552691,191.425808,57.427742,9992.427178
355.555254,-95.712904,191.425808,9896.714274
355.557817,210.568389,248.853550,9839.286531
355.560380,-0.000000,210.568389,9724.431046
355.562943,306.281293,133.998066,9781.858789
355.565506,76.570323,76.570323,9781.858789
355.568069,95.712904,38.285162,9839.286531
355.570632,-57.427742,38.285162,9820.143950
355.573195,76.570323,229.710970,9877.571693
355.575758,57.427742,133.998066,9934.999435
355.578321,191.425808,114.855485,9743.573627
355.580884,229.710970,57.427742,9781.858789
355.583447,76.570323,114.855485,9858.429112
355.586010,191.425808,114.855485,9858.429112
355.588573,-19.142581,229.710970,9781.858789
355.591136,153.140646,153.140646,9858.429112
355.593699,38.285162,229.710970,9915.856854
355.596262,172.283227,95.712904,9896.714274
355.598825,-57.427742,229.710970,9743.573627
355.601388,133.998066,210.568389,9877.571693
355.603951,-57.427742,248.853550,9896.714274
355.606514,114.855485,229.710970,9762.716208
355.609077,-19.142581,76.570323,9762.716208
355.611640,133.998066,76.570323,9915.856854
355.614203,-19.142581,95.712904,9954.142016
355.616766,114.855485,95.712904,9801.001370
355.619329,133.998066,172.283227,9839.286531
355.621892,19.142581,191.425808,9839.286531
355.624455,133.998066,229.710970,9877.571693
355.627018,19.142581,191.425808,9858.429112
355.629581,133.998066,76.570323,9954.142016
355.632144,-0.000000,133.998066,9896.714274
355.634707,76.570323,114.855485,9877.571693
355.637270,-19.142581,325.423874,9743.573627
355.639833,95.712904,325.423874,9724.431046
355.642396,76.570323,191.425808,9896.714274
355.644967,133.998066,287.138712,9781.858789
355.647538,-0.000000,172.283227,9896.714274
355.650109,133.998066,114.855485,9992.427178
355.652680,38.285162,114.855485,9973.284597
355.655251,133.998066,306.281293,9781.858789
355.657822,114.855485,248.853550,9743.573627
355.660393,172.283227,267.996131,9762.716208
355.662964,133.998066,191.425808,9896.714274
355.665535,19.142581,210.568389,9877.571693
355.668106,76.570323,172.283227,9896.714274
355.670677,-95.712904,114.855485,9934.999435
355.673248,114.855485,191.425808,9934.999435
355.675819,-0.000000,172.283227,9801.001370
355.678390,191.425808,267.996131,9801.001370
355.680961,19.142581,267.996131,9915.856854
355.683532,133.998066,267.996131,9915.856854
355.686103,-172.283227,114.855485,9877.571693
355.688674,57.427742,210.568389,9992.427178
355.691245,19.142581,95.712904,9973.284597
355.693816,133.998066,248.853550,9705.288466
355.696387,114.855485,133.998066,9705.288466
355.698958,229.710970,267.996131,9858.429112
355.701529,38.285162,114.855485,9915.856854
355.704100,19.142581,191.425808,9877.571693
355.706671,38.285162,76.570323,9877.571693
355.709242,-0.000000,172.283227,9896.714274
355.711813,210.568389,153.140646,9781.858789
355.714384,38.285162,76.570323,9762.716208
355.716955,191.425808,153.140646,9801.001370
355.719526,-57.427742,153.140646,9973.284597
355.722097,76.570323,248.853550,9915.856854
355.724668,-95.712904,191.425808,9858.429112
355.727239,133.998066,210.568389,9877.571693
355.729810,38.285162,19.142581,9877.571693
355.732381,153.140646,95.712904,9781.858789
355.734952,57.427742,57.427742,9801.001370
355.737523,76.570323,325.423874,9915.856854
355.740094,38.285162,114.855485,9896.714274
355.742665,19.142581,191.425808,9781.858789
355.745236,95.712904,76.570323,9915.856854
355.747812,114.855485,76.570323,9954.142016
355.750387,57.427742,95.712904,9801.001370
355.752963,19.142581,153.140646,9705.288466
355.755538,114.855485,210.568389,9762.716208
355.758113,-57.427742,172.283227,9915.856854
355.760689,57.427742,153.140646,9934.999435
355.763264,19.142581,95.712904,9973.284597
355.765840,95.712904,153.140646,9954.142016
355.768415,133.998066,95.712904,9896.714274
355.770990,57.427742,191.425808,9743.573627
355.773566,133.998066,76.570323,9609.575562
355.776141,114.855485,172.283227,9839.286531
355.778716,133.998066,133.998066,9915.856854
355.781292,-0.000000,267.996131,9858.429112
355.783867,95.712904,153.140646,9954.142016
355.786443,76.570323,172.283227,9877.571693
355.789018,114.855485,95.712904,9781.858789
355.791593,-57.427742,114.855485,9724.431046
355.794169,172.283227,172.283227,9839.286531
355.796744,-19.142581,172.283227,9954.142016
355.799320,95.712904,153.140646,9877.571693
355.801895,57.427742,248.853550,9934.999435
355.804470,191.425808,191.425808,9820.143950
355.807046,57.427742,95.712904,9820.143950
355.809621,114.855485,76.570323,9724.431046
355.812196,95.712904,172.283227,9762.716208
355.814772,76.570323,229.710970,9877.571693
355.817347,76.570323,153.140646,9839.286531
355.819923,-19.142581,267.996131,9820.143950
355.822498,153.140646,95.712904,9801.001370
355.825073,76.570323,172.283227,9954.142016
355.827649,95.712904,210.568389,9762.716208
355.830224,38.285162,229.710970,9724.431046
355.832800,191.425808,248.853550,9781.858789
355.835375,38.285162,114.855485,9915.856854
355.837950,114.855485,248.853550,9743.573627
355.840526,-57.427742,133.998066,9877.571693
355.843101,57.427742,248.853550,10049.854920
355.845676,-95.712904,76.570323,10011.569758
355.848252,57.427742,287.138712,9762.716208
355.850829,153.140646,210.568389,9743.573627
355.853407,191.425808,191.425808,9839.286531
355.855985,133.998066,172.283227,9877.571693
355.858562,19.142581,210.568389,9896.714274
355.861140,76.570323,153.140646,9896.714274
355.863718,19.142581,287.138712,9934.999435
355.866295,76.570323,229.710970,9820.143950
355.868873,-0.000000,133.998066,9896.714274
355.871450,114.855485,210.568389,9839.286531
355.874028,-19.142581,172.283227,9915.856854
355.876606,95.712904,306.281293,9858.429112
355.879183,19.142581,248.853550,9896.714274
355.881761,76.570323,210.568389,9820.143950
355.884339,38.285162,114.855485,9896.714274
355.886916,133.998066,229.710970,9820.143950
355.889494,38.285162,76.570323,9858.429112
355.892071,57.427742,306.281293,9801.001370
355.894649,76.570323,229.710970,9762.716208
355.897227,19.142581,210.568389,9820.143950
355.899804,153.140646,95.712904,9896.714274
355.902382,-19.142581,210.568389,9973.284597
355.904959,95.712904,210.568389,9762.716208
355.907537,-19.142581,191.425808,9781.858789
355.910115,133.998066,191.425808,9820.143950
355.912692,57.427742,172.283227,9973.284597
355.915270,153.140646,153.140646,9858.429112
355.917848,-0.000000,76.570323,9877.571693
355.920425,76.570323,153.140646,9896.714274
355.923003,-0.000000,153.140646,9915.856854
355.925580,133.998066,229.710970,9801.001370
355.928158,76.570323,114.855485,9743.573627
355.930736,133.998066,153.140646,9877.571693
355.933313,19.142581,38.285162,9954.142016
355.935891,114.855485,229.710970,9762.716208
355.938469,76.570323,210.568389,9877.571693
355.941046,-95.712904,287.138712,9934.999435
355.943624,133.998066,191.425808,9896.714274
355.946201,38.285162,76.570323,9858.429112
355.948779,133.998066,172.283227,9762.716208
355.951357,-0.000000,57.427742,9934.999435
355.953937,95.712904,153.140646,9877.571693
355.956515,-76.570323,76.570323,9877.571693
355.959093,114.855485,229.710970,9934.999435
355.961671,-38.285162,133.998066,9896.714274
355.964249,133.998066,267.996131,9781.858789
355.966827,95.712904,76.570323,9724.431046
355.969405,191.425808,153.140646,9839.286531
355.971983,38.285162,38.285162,9801.001370
355.974561,114.855485,210.568389,9820.143950
355.977139,95.712904,114.855485,9801.001370
355.979717,76.570323,210.568389,9877.571693
355.982295,95.712904,95.712904,9858.429112
355.984873,76.570323,210.568389,9877.571693
355.987451,153.140646,267.996131,9858.429112
355.990029,-76.570323,114.855485,9973.284597
355.992607,19.142581,248.853550,9839.286531
355.995185,-0.000000,76.570323,9858.429112
355.997763,153.140646,114.855485,9858.429112
356.000341,76.570323,76.570323,9954.142016
356.002919,114.855485,210.568389,9801.001370
356.005497,38.285162,133.998066,9762.716208
356.008076,172.283227,229.710970,9896.714274
356.010654,114.855485,114.855485,9820.143950
356.013232,95.712904,248.853550,9705.288466
356.015810,95.712904,95.712904,9820.143950
356.018388,19.142581,248.853550,9839.286531
356.020966,153.140646,172.283227,9896.714274
356.023544,19.142581,210.568389,9762.716208
356.026122,95.712904,229.710970,9762.716208
356.028700,76.570323,248.853550,9915.856854
356.031278,114.855485,229.710970,9762.716208
356.033856,-38.285162,153.140646,9896.714274
356.036434,153.140646,287.138712,9896.714274
356.039012,19.142581,153.140646,9896.714274
356.041590,95.712904,172.283227,9762.716208
356.044168,114.855485,95.712904,9781.858789
356.046746,76.570323,267.996131,9915.856854
356.049324,57.427742,287.138712,9801.001370
356.051902,76.570323,325.423874,9686.145885
356.054480,172.283227,248.853550,9820.143950
356.057058,114.855485,287.138712,9915.856854
356.059637,133.998066,76.570323,9973.284597
356.062215,-0.000000,133.998066,9781.858789
356.064793,153.140646,114.855485,9781.858789
356.067371,-19.142581,172.283227,9915.856854
356.069949,57.427742,114.855485,9858.429112
356.072527,-0.000000,248.853550,9896.714274
356.075105,57.427742,306.281293,9896.714274
356.077683,57.427742,191.425808,9934.999435
356.080261,95.712904,191.425808,9686.145885
356.082840,133.998066,95.712904,9781.858789
356.085418,210.568389,153.140646,9915.856854
356.087996,76.570323,172.283227,9858.429112
356.090574,57.427742,306.281293,9781.858789
356.093152,57.427742,248.853550,9877.571693
356.095730,57.427742,248.853550,9973.284597
356.098308,172.283227,153.140646,9934.999435
356.100886,38.285162,153.140646,9762.716208
356.103464,133.998066,172.283227,9820.143950
356.106042,38.285162,133.998066,9934.999435
356.108621,95.712904,153.140646,9934.999435
356.111199,19.142581,191.425808,9839.286531
356.113777,133.998066,172.283227,9877.571693
356.116355,76.570323,76.570323,9973.284597
356.118933,153.140646,114.855485,9781.858789
356.121511,-19.142581,95.712904,9762.716208
356.124089,153.140646,287.138712,9801.001370
356.126667,38.285162,76.570323,9762.716208
356.129245,57.427742,95.712904,9801.001370
356.131824,153.140646,38.285162,9896.714274
356.134402,-19.142581,114.855485,9973.284597
356.136980,114.855485,114.855485,9877.571693
356.139558,57.427742,191.425808,9743.573627
356.142136,172.283227,133.998066,9858.429112
356.144713,76.570323,114.855485,9877.571693
356.147291,57.427742,95.712904,9801.001370
356.149869,-76.570323,114.855485,9973.284597
356.152447,133.998066,114.855485,9877.571693
356.155025,-19.142581,95.712904,9973.284597
356.157603,76.570323,172.283227,9762.716208
356.160181,76.570323,114.855485,9686.145885
356.162759,267.996131,325.423874,9839.286531
356.165336,19.142581,114.855485,9877.571693
356.167914,95.712904,191.425808,9743.573627
356.170492,76.570323,114.855485,9839.286531
356.173070,-0.000000,153.140646,9896.714274
356.175648,133.998066,114.855485,9858.429112
356.178226,57.427742,95.712904,9801.001370
356.180804,191.425808,325.423874,9915.856854
356.183382,-95.712904,267.996131,9954.142016
356.185959,19.142581,287.138712,9877.571693
356.188537,38.285162,114.855485,9915.856854
356.191115,133.998066,38.285162,9915.856854
356.193693,-19.142581,95.712904,9934.999435
356.196271,114.855485,229.710970,9762.716208
356.198849,19.142581,191.425808,9781.858789
356.201427,153.140646,344.566454,9858.429112
356.204005,-19.142581,191.425808,9915.856854
356.206582,38.285162,267.996131,9858.429112
356.209160,57.427742,114.855485,9915.856854
356.211738,-19.142581,172.283227,9954.142016
356.214316,114.855485,95.712904,9896.714274
356.216894,76.570323,210.568389,9762.716208
356.219472,210.568389,210.568389,9781.858789
356.222050,38.285162,267.996131,9877.571693
356.224628,133.998066,191.425808,9820.143950
356.227205,38.285162,114.855485,9954.142016
356.229783,19.142581,133.998066,9896.714274
356.232361,-19.142581,95.712904,9934.999435
356.234939,114.855485,172.283227,9858.429112
356.237517,19.142581,95.712904,9743.573627
356.240095,172.283227,287.138712,9915.856854
356.242673,19.142581,248.853550,9896.714274
356.245251,153.140646,306.281293,9801.001370
356.247829,38.285162,210.568389,9915.856854
356.250406,57.427742,133.998066,9954.142016
356.252984,57.427742,95.712904,9839.286531
356.255562,19.142581,114.855485,9762.716208
356.258140,191.425808,153.140646,9801.001370
356.260718,19.142581,248.853550,9973.284597
356.263293,95.712904,210.568389,9858.429112
356.265869,19.142581,229.710970,9934.999435
356.268444,95.712904,287.138712,9858.429112
356.271020,-0.000000,133.998066,9896.714274
356.273595,114.855485,172.283227,9743.573627
356.276171,76.570323,114.855485,9839.286531
356.278747,133.998066,325.423874,9915.856854
356.281322,38.285162,210.568389,9915.856854
356.283898,76.570323,229.710970,9820.143950
356.286473,76.570323,114.855485,9801.001370
356.289049,57.427742,114.855485,9801.001370
356.291624,114.855485,114.855485,9877.571693
356.294200,114.855485,76.570323,9686.145885
356.296775,133.998066,114.855485,9839.286531
356.299351,38.285162,363.709035,9877.571693
356.301926,114.855485,191.425808,9877.571693
356.304502,19.142581,191.425808,9896.714274
356.307077,172.283227,76.570323,9839.286531
356.309653,38.285162,95.712904,9896.714274
356.312228,210.568389,153.140646,9724.431046
356.314804,-19.142581,133.998066,9820.143950
356.317379,95.712904,191.425808,9934.999435
356.319955,19.142581,191.425808,9896.714274
356.322530,114.855485,210.568389,9820.143950
356.325106,153.140646,133.998066,9934.999435
356.327681,76.570323,76.570323,9954.142016
356.330257,19.142581,133.998066,9896.714274
356.332832,95.712904,153.140646,9647.860723
356.335408,191.425808,229.710970,9820.143950
356.337983,76.570323,191.425808,9915.856854
356.340559,133.998066,114.855485,9858.429112
356.343134,-19.142581,76.570323,9820.143950
