#time,accel_x,accel_y,accel_z
285.959559,57.427742,191.425808,9954.142016
285.962144,153.140646,172.283227,9877.571693
285.964729,57.427742,133.998066,9934.999435
285.967313,76.570323,114.855485,9801.001370
285.969898,114.855485,191.425808,9934.999435
285.972482,153.140646,191.425808,9877.571693
285.975067,95.712904,229.710970,9839.286531
285.977652,57.427742,210.568389,9743.573627
285.980236,19.142581,153.140646,9781.858789
285.982821,114.855485,153.140646,9762.716208
285.985406,19.142581,153.140646,9781.858789
285.987990,19.142581,133.998066,9839.286531
285.990575,76.570323,191.425808,9877.571693
285.993160,-0.000000,153.140646,9839.286531
285.995744,19.142581,133.998066,9896.714274
285.998329,57.427742,191.425808,9762.716208
286.000913,38.285162,172.283227,9839.286531
286.003498,76.570323,210.568389,9858.429112
286.006083,19.142581,153.140646,9858.429112
286.008667,38.285162,172.283227,9839.286531
286.011252,76.570323,210.568389,9858.429112
286.013837,76.570323,172.283227,9820.143950
286.016421,19.142581,191.425808,9820.143950
286.019006,133.998066,153.140646,9877.571693
286.021591,133.998066,172.283227,9801.001370
286.024175,76.570323,191.425808,9896.714274
286.026760,76.570323,172.283227,9896.714274
286.029344,38.285162,114.855485,9915.856854
286.031929,76.570323,153.140646,9877.571693
286.034514,76.570323,114.855485,9858.429112
286.037098,38.285162,76.570323,9820.143950
286.039683,38.285162,191.425808,9858.429112
286.042268,76.570323,172.283227,9762.716208
286.044852,57.427742,153.140646,9743.573627
286.047437,114.855485,95.712904,9820.143950
286.050109,95.712904,95.712904,9781.858789
286.052780,76.570323,153.140646,9820.143950
286.055452,57.427742,76.570323,9858.429112
286.058124,133.998066,114.855485,9820.143950
286.060796,38.285162,133.998066,9820.143950
286.063468,76.570323,76.570323,9915.856854
286.066139,114.855485,114.855485,9858.429112
286.068811,57.427742,287.138712,9781.858789
286.071483,57.427742,191.425808,9934.999435
286.074155,95.712904,133.998066,9934.999435
286.076826,57.427742,95.712904,9896.714274
286.079498,191.425808,95.712904,10049.854920
286.082170,57.427742,114.855485,9781.858789
286.084842,38.285162,287.138712,9801.001370
286.087514,133.998066,325.423874,9877.571693
286.090185,57.427742,287.138712,9781.858789
286.092857,19.142581,248.853550,9858.429112
286.095529,114.855485,114.855485,9820.143950
286.098201,57.427742,95.712904,9724.431046
286.100872,76.570323,76.570323,9724.431046
286.103544,95.712904,95.712904,9839.286531
286.106216,76.570323,172.283227,9762.716208
286.108888,-0.000000,191.425808,9724.431046
286.111560,76.570323,229.710970,9877.571693
286.114231,133.998066,153.140646,9877.571693
286.116903,38.285162,76.570323,9839.286531
286.119575,114.855485,133.998066,9992.427178
286.122247,76.570323,133.998066,9896.714274
286.124918,19.142581,191.425808,9858.429112
286.127590,153.140646,248.853550,9934.999435
286.130262,114.855485,172.283227,9877.571693
286.132934,57.427742,172.283227,9934.999435
286.135606,57.427742,172.283227,9934.999435
286.138277,38.285162,114.855485,9934.999435
286.140949,114.855485,191.425808,9820.143950
286.143621,114.855485,210.568389,9801.001370
286.146293,57.427742,191.425808,9762.716208
286.148964,76.570323,248.853550,9724.431046
286.151636,76.570323,172.283227,9762.716208
286.154308,76.570323,172.283227,9839.286531
286.157012,38.285162,229.710970,9839.286531
286.159715,38.285162,248.853550,9934.999435
286.162419,76.570323,153.140646,9858.429112
286.165122,76.570323,172.283227,9820.143950
286.167826,114.855485,191.425808,9820.143950
286.170529,76.570323,172.283227,9762.716208
286.173233,19.142581,153.140646,9858.429112
286.175937,57.427742,153.140646,9877.571693
286.178640,191.425808,114.855485,9801.001370
286.181344,153.140646,248.853550,9877.571693
286.184047,57.427742,172.283227,9877.571693
286.186751,76.570323,172.283227,9877.571693
286.189454,76.570323,172.283227,9877.571693
286.192158,57.427742,114.855485,9896.714274
286.194861,38.285162,210.568389,9896.714274
286.197565,57.427742,191.425808,9915.856854
286.200269,19.142581,172.283227,9877.571693
286.202972,76.570323,76.570323,9915.856854
286.205676,57.427742,172.283227,9934.999435
286.208379,114.855485,95.712904,9820.143950
286.211083,76.570323,191.425808,9858.429112
286.213786,95.712904,210.568389,9839.286531
286.216490,76.570323,114.855485,9801.001370
286.219194,76.570323,114.855485,9762.716208
286.221897,76.570323,210.568389,9820.143950
286.224601,76.570323,191.425808,9877.571693
286.227304,76.570323,172.283227,9858.429112
286.230008,19.142581,133.998066,9896.714274
286.232711,76.570323,114.855485,9877.571693
286.235415,76.570323,172.283227,9877.571693
286.238119,38.285162,172.283227,9915.856854
286.240822,76.570323,76.570323,9915.856854
286.243526,19.142581,95.712904,9934.999435
286.246229,76.570323,210.568389,9839.286531
286.248933,76.570323,210.568389,9762.716208
286.251636,19.142581,191.425808,9801.001370
286.254340,19.142581,133.998066,9801.001370
286.257044,76.570323,172.283227,9839.286531
286.259747,57.427742,95.712904,9896.714274
286.262451,76.570323,153.140646,9858.429112
286.265160,19.142581,191.425808,9820.143950
286.267869,19.142581,248.853550,9801.001370
286.270578,114.855485,172.283227,9820.143950
286.273288,114.855485,114.855485,9896.714274
286.275997,76.570323,76.570323,9781.858789
286.278706,76.570323,114.855485,9858.429112
286.281415,95.712904,153.140646,9858.429112
286.284124,76.570323,191.425808,9781.858789
286.286833,76.570323,191.425808,9801.001370
286.289543,19.142581,191.425808,9801.001370
286.292252,76.570323,172.283227,9762.716208
286.294961,114.855485,210.568389,9839.286531
286.297670,76.570323,133.998066,9915.856854
286.300379,76.570323,153.140646,9858.429112
286.303089,95.712904,172.283227,9877.571693
286.305798,76.570323,210.568389,9858.429112
286.308507,76.570323,210.568389,9877.571693
286.311216,114.855485,191.425808,9858.429112
286.313925,57.427742,95.712904,9839.286531
286.316635,133.998066,172.283227,9858.429112
286.319344,19.142581,153.140646,9820.143950
286.322053,57.427742,95.712904,9781.858789
286.324762,95.712904,114.855485,9762.716208
286.327471,76.570323,172.283227,9858.429112
286.330181,76.570323,172.283227,9762.716208
286.332890,57.427742,114.855485,9801.001370
286.335599,19.142581,153.140646,9820.143950
286.338308,57.427742,287.138712,9801.001370
286.341017,76.570323,172.283227,9820.143950
286.343727,19.142581,133.998066,9801.001370
286.346436,76.570323,153.140646,9801.001370
286.349145,38.285162,153.140646,9973.284597
286.351854,76.570323,229.710970,9858.429112
286.354563,76.570323,210.568389,9858.429112
286.357273,57.427742,191.425808,9915.856854
286.359982,95.712904,191.425808,9877.571693
286.362691,76.570323,229.710970,9877.571693
286.365400,76.570323,210.568389,9877.571693
286.368109,57.427742,133.998066,9877.571693
286.370819,19.142581,210.568389,9839.286531
286.373521,76.570323,248.853550,9801.001370
286.376224,57.427742,153.140646,9877.571693
286.378926,19.142581,153.140646,9820.143950
286.381628,19.142581,191.425808,9801.001370
286.384331,57.427742,114.855485,9839.286531
286.387033,114.855485,153.140646,9820.143950
286.389736,133.998066,133.998066,9781.858789
286.392438,76.570323,210.568389,9762.716208
286.395141,95.712904,114.855485,9839.286531
286.397843,57.427742,114.855485,9896.714274
286.400546,114.855485,210.568389,9839.286531
286.403248,76.570323,210.568389,9877.571693
286.405951,19.142581,153.140646,9820.143950
286.408653,76.570323,172.283227,9839.286531
286.411355,95.712904,210.568389,9820.143950
286.414058,76.570323,172.283227,9820.143950
286.416760,76.570323,114.855485,9877.571693
286.419463,76.570323,133.998066,9915.856854
286.422165,76.570323,210.568389,9877.571693
286.424868,76.570323,172.283227,9820.143950
286.427570,114.855485,172.283227,9858.429112
286.430273,95.712904,229.710970,9877.571693
286.432975,57.427742,114.855485,9801.001370
286.435678,19.142581,114.855485,9839.286531
286.438380,-0.000000,172.283227,9781.858789
286.441083,57.427742,95.712904,9820.143950
286.443785,19.142581,133.998066,9839.286531
286.446487,76.570323,210.568389,9877.571693
286.449190,-0.000000,210.568389,9896.714274
286.451892,76.570323,114.855485,9858.429112
286.454595,38.285162,76.570323,9858.429112
286.457297,19.142581,191.425808,9839.286531
286.460000,114.855485,114.855485,9839.286531
286.462702,114.855485,172.283227,9858.429112
286.465405,153.140646,95.712904,9896.714274
286.468107,19.142581,172.283227,9896.714274
286.470810,76.570323,153.140646,9762.716208
286.473512,57.427742,153.140646,9934.999435
286.476214,76.570323,172.283227,9858.429112
286.478917,114.855485,229.710970,9858.429112
286.481608,114.855485,210.568389,9858.429112
286.484300,114.855485,172.283227,9839.286531
286.486992,19.142581,133.998066,9839.286531
286.489683,95.712904,95.712904,9896.714274
286.492375,19.142581,172.283227,9896.714274
286.495066,-19.142581,191.425808,9820.143950
286.497758,38.285162,248.853550,9801.001370
286.500449,57.427742,153.140646,9877.571693
286.503141,76.570323,210.568389,9801.001370
286.505832,57.427742,133.998066,9762.716208
286.508524,38.285162,95.712904,9781.858789
286.511215,76.570323,210.568389,9762.716208
286.513907,57.427742,114.855485,9858.429112
286.516598,95.712904,153.140646,9934.999435
286.519290,114.855485,153.140646,9934.999435
286.521981,76.570323,172.283227,9877.571693
286.524673,-0.000000,133.998066,9896.714274
286.527364,19.142581,172.283227,9877.571693
286.530056,114.855485,153.140646,9820.143950
286.532747,95.712904,153.140646,9877.571693
286.535439,95.712904,153.140646,9934.999435
286.538130,19.142581,191.425808,9896.714274
286.540822,76.570323,114.855485,9877.571693
286.543513,19.142581,133.998066,9896.714274
286.546205,114.855485,114.855485,9858.429112
286.548897,76.570323,172.283227,9762.716208
286.551588,95.712904,229.710970,9820.143950
286.554280,19.142581,172.283227,9896.714274
286.556971,114.855485,210.568389,9820.143950
286.559663,57.427742,114.855485,9801.001370
286.562354,57.427742,153.140646,9973.284597
286.565046,76.570323,95.712904,9877.571693
286.567737,76.570323,191.425808,9762.716208
286.570429,57.427742,229.710970,9896.714274
286.573120,38.285162,210.568389,9839.286531
286.575812,19.142581,191.425808,9801.001370
286.578503,57.427742,133.998066,9973.284597
286.581195,76.570323,76.570323,9896.714274
286.583886,19.142581,172.283227,9820.143950
286.586578,133.998066,229.710970,9858.429112
286.589260,95.712904,248.853550,9934.999435
286.591938,38.285162,229.710970,9781.858789
286.594617,57.427742,133.998066,9954.142016
286.597296,57.427742,95.712904,9839.286531
286.599975,76.570323,57.427742,9877.571693
286.602653,114.855485,114.855485,9877.571693
286.605332,76.570323,172.283227,9762.716208
286.608011,76.570323,210.568389,9820.143950
286.610690,172.283227,210.568389,9915.856854
286.613369,19.142581,133.998066,9781.858789
286.616047,-19.142581,191.425808,9839.286531
286.618726,114.855485,172.283227,9877.571693
286.621405,19.142581,191.425808,9724.431046
286.624084,114.855485,153.140646,9858.429112
286.626762,57.427742,95.712904,9896.714274
286.629441,114.855485,114.855485,9820.143950
286.632120,19.142581,114.855485,9877.571693
286.634799,76.570323,153.140646,9973.284597
286.637477,76.570323,172.283227,9762.716208
286.640156,133.998066,229.710970,9858.429112
286.642835,95.712904,114.855485,9858.429112
286.645514,38.285162,172.283227,9724.431046
286.648193,57.427742,95.712904,9839.286531
286.650871,133.998066,191.425808,9934.999435
286.653550,76.570323,172.283227,9820.143950
286.656229,133.998066,210.568389,9877.571693
286.658908,76.570323,229.710970,9839.286531
286.661586,19.142581,210.568389,9781.858789
286.664265,19.142581,133.998066,9896.714274
286.666944,114.855485,133.998066,9954.142016
286.669623,38.285162,76.570323,9743.573627
286.672301,38.285162,76.570323,9877.571693
286.674980,76.570323,172.283227,9877.571693
286.677659,19.142581,229.710970,9839.286531
286.680338,76.570323,191.425808,9801.001370
286.683016,19.142581,153.140646,9896.714274
286.685695,19.142581,133.998066,9839.286531
286.688374,57.427742,95.712904,9896.714274
286.691053,114.855485,153.140646,9934.999435
286.693732,76.570323,153.140646,9858.429112
286.696396,76.570323,172.283227,9858.429112
286.699061,57.427742,153.140646,9934.999435
286.701725,57.427742,153.140646,9820.143950
286.704390,153.140646,172.283227,9954.142016
286.707054,76.570323,172.283227,9858.429112
286.709719,114.855485,210.568389,9762.716208
286.712384,76.570323,191.425808,9877.571693
286.715048,114.855485,153.140646,9762.716208
286.717713,114.855485,114.855485,9877.571693
286.720377,114.855485,95.712904,9896.714274
286.723042,19.142581,191.425808,9858.429112
286.725706,76.570323,172.283227,9858.429112
286.728371,57.427742,248.853550,9934.999435
286.731036,95.712904,210.568389,9858.429112
286.733700,-0.000000,133.998066,9801.001370
286.736365,114.855485,133.998066,9973.284597
286.739029,76.570323,133.998066,9915.856854
286.741694,-19.142581,153.140646,9839.286531
286.744358,19.142581,248.853550,9858.429112
286.747023,38.285162,267.996131,9858.429112
286.749688,19.142581,153.140646,9781.858789
286.752352,191.425808,191.425808,9896.714274
286.755017,57.427742,133.998066,9934.999435
286.757681,76.570323,172.283227,9820.143950
286.760346,19.142581,191.425808,9896.714274
286.763011,76.570323,267.996131,9915.856854
286.765675,76.570323,229.710970,9820.143950
286.768340,57.427742,114.855485,9858.429112
286.771004,57.427742,153.140646,9877.571693
286.773669,76.570323,153.140646,9839.286531
286.776333,19.142581,191.425808,9896.714274
286.778998,76.570323,210.568389,9762.716208
286.781663,76.570323,229.710970,9762.716208
286.784327,76.570323,172.283227,9820.143950
286.786992,76.570323,172.283227,9762.716208
286.789656,19.142581,191.425808,9896.714274
286.792321,19.142581,153.140646,9858.429112
286.794985,114.855485,210.568389,9820.143950
286.797650,76.570323,210.568389,9762.716208
286.800315,76.570323,114.855485,9877.571693
286.802966,19.142581,133.998066,9781.858789
286.805617,76.570323,76.570323,9839.286531
286.808268,76.570323,114.855485,9877.571693
286.810919,76.570323,153.140646,9820.143950
286.813570,114.855485,229.710970,9820.143950
286.816221,76.570323,210.568389,9858.429112
286.818872,76.570323,114.855485,9820.143950
286.821523,95.712904,76.570323,9896.714274
286.824174,76.570323,76.570323,9915.856854
286.826825,114.855485,287.138712,9896.714274
286.829476,19.142581,153.140646,9896.714274
286.832127,57.427742,287.138712,9896.714274
286.834778,133.998066,172.283227,9877.571693
286.837429,57.427742,172.283227,9762.716208
286.840080,57.427742,95.712904,9801.001370
286.842731,114.855485,114.855485,9934.999435
286.845383,38.285162,133.998066,9820.143950
286.848034,76.570323,210.568389,9820.143950
286.850685,114.855485,172.283227,9934.999435
286.853336,19.142581,133.998066,9801.001370
286.855987,95.712904,172.283227,9820.143950
286.858638,114.855485,133.998066,9934.999435
286.861289,38.285162,76.570323,9858.429112
286.863940,76.570323,248.853550,9896.714274
286.866591,76.570323,229.710970,9801.001370
286.869242,76.570323,172.283227,9858.429112
286.871893,133.998066,114.855485,9896.714274
286.874544,57.427742,133.998066,9934.999435
286.877195,57.427742,114.855485,9801.001370
286.879846,19.142581,248.853550,9839.286531
286.882497,76.570323,229.710970,9801.001370
286.885148,76.570323,114.855485,9762.716208
286.887799,133.998066,114.855485,9858.429112
286.890451,114.855485,38.285162,9801.001370
286.893102,114.855485,114.855485,9801.001370
286.895753,114.855485,114.855485,9858.429112
286.898404,19.142581,191.425808,9896.714274
286.901055,76.570323,229.710970,9762.716208
286.903706,76.570323,287.138712,9839.286531
286.906357,76.570323,210.568389,9877.571693
286.908994,95.712904,114.855485,9839.286531
286.911632,19.142581,114.855485,9934.999435
286.914269,19.142581,133.998066,9820.143950
286.916907,76.570323,191.425808,9820.143950
286.919544,76.570323,210.568389,9877.571693
286.922182,114.855485,172.283227,9858.429112
286.924819,76.570323,210.568389,9820.143950
286.927456,76.570323,172.283227,9839.286531
286.930094,19.142581,248.853550,9801.001370
286.932731,76.570323,172.283227,9877.571693
286.935369,133.998066,210.568389,9801.001370
286.938006,95.712904,210.568389,9839.286531
286.940644,38.285162,133.998066,9820.143950
286.943281,76.570323,114.855485,9858.429112
286.945918,38.285162,133.998066,9839.286531
286.948556,19.142581,133.998066,9896.714274
286.951193,114.855485,210.568389,9877.571693
286.953831,57.427742,229.710970,9801.001370
286.956468,114.855485,229.710970,9762.716208
286.959106,114.855485,114.855485,9762.716208
286.961743,76.570323,172.283227,9877.571693
286.964381,57.427742,133.998066,9934.999435
286.967018,19.142581,153.140646,9858.429112
286.969655,114.855485,210.568389,9858.429112
286.972293,76.570323,210.568389,9839.286531
286.974930,19.142581,191.425808,9839.286531
286.977568,57.427742,153.140646,9877.571693
286.980205,76.570323,114.855485,9877.571693
286.982843,95.712904,172.283227,9877.571693
286.985480,57.427742,172.283227,9858.429112
286.988118,38.285162,229.710970,9915.856854
286.990755,133.998066,133.998066,9839.286531
286.993392,19.142581,172.283227,9839.286531
286.996030,19.142581,153.140646,9781.858789
286.998667,19.142581,153.140646,9820.143950
287.001305,95.712904,133.998066,9934.999435
287.003942,133.998066,114.855485,9858.429112
287.006580,19.142581,229.710970,9934.999435
287.009217,76.570323,210.568389,9762.716208
287.011854,38.285162,191.425808,9801.001370
287.014480,19.142581,210.568389,9877.571693
287.017105,19.142581,210.568389,9839.286531
287.019730,76.570323,210.568389,9801.001370
287.022355,19.142581,248.853550,9896.714274
287.024981,133.998066,172.283227,9820.143950
287.027606,95.712904,191.425808,9858.429112
287.030231,95.712904,95.712904,9801.001370
287.032856,114.855485,133.998066,9877.571693
287.035482,19.142581,133.998066,9820.143950
287.038107,76.570323,210.568389,9858.429112
287.040732,76.570323,229.710970,9858.429112
287.043357,114.855485,153.140646,9877.571693
287.045983,76.570323,114.855485,9820.143950
287.048608,95.712904,76.570323,9915.856854
287.051233,114.855485,248.853550,9954.142016
287.053858,76.570323,114.855485,9839.286531
287.056484,-0.000000,153.140646,9839.286531
287.059109,76.570323,172.283227,9877.571693
287.061734,76.570323,191.425808,9820.143950
287.064359,19.142581,133.998066,9839.286531
287.066984,57.427742,114.855485,9801.001370
287.069610,19.142581,133.998066,9801.001370
287.072235,19.142581,210.568389,9820.143950
287.074860,76.570323,229.710970,9877.571693
287.077485,76.570323,172.283227,9801.001370
287.080111,19.142581,191.425808,9839.286531
287.082736,57.427742,95.712904,9801.001370
287.085361,19.142581,153.140646,9896.714274
287.087986,76.570323,172.283227,9820.143950
287.090612,76.570323,172.283227,9839.286531
287.093237,19.142581,172.283227,9896.714274
287.095862,19.142581,248.853550,9839.286531
287.098487,76.570323,76.570323,9839.286531
287.101113,114.855485,210.568389,9877.571693
287.103738,76.570323,172.283227,9762.716208
287.106363,76.570323,114.855485,9877.571693
287.108988,76.570323,229.710970,9858.429112
287.111614,57.427742,267.996131,9762.716208
287.114239,114.855485,172.283227,9858.429112
287.116864,133.998066,210.568389,9801.001370
287.119478,76.570323,114.855485,9858.429112
287.122092,153.140646,133.998066,9973.284597
287.124707,76.570323,153.140646,9839.286531
287.127321,76.570323,210.568389,9820.143950
287.129935,76.570323,172.283227,9801.001370
287.132549,19.142581,133.998066,9858.429112
287.135163,19.142581,172.283227,9858.429112
287.137777,57.427742,153.140646,9934.999435
287.140392,76.570323,210.568389,9820.143950
287.143006,76.570323,210.568389,9762.716208
287.145620,114.855485,153.140646,9877.571693
287.148234,76.570323,153.140646,9839.286531
287.150848,114.855485,210.568389,9877.571693
287.153462,76.570323,172.283227,9839.286531
287.156077,19.142581,248.853550,9801.001370
287.158691,76.570323,229.710970,9820.143950
287.161305,76.570323,172.283227,9839.286531
287.163919,114.855485,172.283227,9820.143950
287.166533,114.855485,114.855485,9762.716208
287.169148,95.712904,210.568389,9877.571693
287.171762,95.712904,210.568389,9858.429112
287.174376,76.570323,172.283227,9877.571693
287.176990,38.285162,172.283227,9896.714274
287.179604,95.712904,153.140646,9858.429112
287.182218,76.570323,172.283227,9762.716208
287.184833,114.855485,210.568389,9877.571693
287.187447,76.570323,114.855485,9858.429112
287.190061,76.570323,210.568389,9820.143950
287.192675,114.855485,153.140646,9858.429112
287.195289,19.142581,191.425808,9801.001370
287.197903,76.570323,210.568389,9820.143950
287.200518,76.570323,153.140646,9820.143950
287.203132,19.142581,153.140646,9781.858789
287.205746,19.142581,153.140646,9839.286531
287.208360,38.285162,191.425808,9896.714274
287.210974,133.998066,210.568389,9858.429112
287.213588,114.855485,229.710970,9877.571693
287.216203,114.855485,153.140646,9858.429112
287.218817,19.142581,248.853550,9896.714274
287.221431,19.142581,95.712904,9954.142016
287.224035,19.142581,153.140646,9801.001370
287.226639,114.855485,114.855485,9820.143950
287.229243,19.142581,133.998066,9801.001370
287.231847,133.998066,172.283227,9762.716208
287.234451,19.142581,248.853550,9781.858789
287.237055,76.570323,210.568389,9820.143950
287.239660,95.712904,114.855485,9839.286531
287.242264,38.285162,172.283227,9896.714274
287.244868,19.142581,172.283227,9801.001370
287.247472,19.142581,153.140646,9801.001370
287.250076,133.998066,229.710970,9858.429112
287.252680,95.712904,114.855485,9858.429112
287.255284,76.570323,172.283227,9877.571693
287.257888,95.712904,114.855485,9877.571693
287.260492,76.570323,210.568389,9839.286531
287.263096,76.570323,229.710970,9839.286531
287.265700,191.425808,133.998066,9839.286531
287.268304,19.142581,172.283227,9858.429112
287.270908,95.712904,95.712904,9896.714274
287.273513,19.142581,191.425808,9801.001370
287.276117,-19.142581,76.570323,9839.286531
287.278721,76.570323,172.283227,9858.429112
287.281325,114.855485,210.568389,9877.571693
287.283929,76.570323,210.568389,9762.716208
287.286533,76.570323,114.855485,9877.571693
287.289137,57.427742,114.855485,9896.714274
287.291741,38.285162,95.712904,9896.714274
287.294345,-0.000000,153.140646,9781.858789
287.296949,114.855485,229.710970,9858.429112
287.299553,19.142581,153.140646,9801.001370
287.302157,76.570323,210.568389,9858.429112
287.304762,76.570323,210.568389,9820.143950
287.307366,95.712904,114.855485,9877.571693
287.309970,76.570323,191.425808,9801.001370
287.312574,76.570323,210.568389,9839.286531
287.315178,76.570323,210.568389,9877.571693
287.317782,114.855485,210.568389,9820.143950
287.320386,57.427742,172.283227,9743.573627
287.322990,76.570323,133.998066,9915.856854
287.325594,57.427742,153.140646,9877.571693
287.328189,19.142581,153.140646,9820.143950
287.330785,153.140646,210.568389,9896.714274
287.333380,57.427742,248.853550,9934.999435
287.335975,76.570323,114.855485,9762.716208
287.338571,38.285162,57.427742,9877.571693
287.341166,57.427742,95.712904,9858.429112
287.343761,76.570323,172.283227,9801.001370
287.346357,76.570323,229.710970,9820.143950
287.348952,57.427742,229.710970,9839.286531
287.351547,76.570323,172.283227,9877.571693
287.354143,19.142581,133.998066,9896.714274
287.356738,76.570323,210.568389,9877.571693
287.359333,76.570323,76.570323,9973.284597
287.361928,19.142581,153.140646,9801.001370
287.364524,133.998066,210.568389,9820.143950
287.367119,76.570323,172.283227,9839.286531
287.369714,19.142581,133.998066,9820.143950
287.372310,76.570323,191.425808,9820.143950
287.374905,19.142581,133.998066,9896.714274
287.377500,76.570323,172.283227,9858.429112
287.380096,76.570323,114.855485,9839.286531
287.382691,95.712904,172.283227,9839.286531
287.385286,57.427742,153.140646,9877.571693
287.387882,38.285162,133.998066,9858.429112
287.390477,114.855485,114.855485,9839.286531
287.393072,76.570323,172.283227,9877.571693
287.395668,57.427742,210.568389,9858.429112
287.398263,19.142581,114.855485,9820.143950
287.400858,95.712904,153.140646,9934.999435
287.403453,76.570323,210.568389,9820.143950
287.406049,114.855485,95.712904,9896.714274
287.408644,57.427742,191.425808,9934.999435
287.411239,19.142581,153.140646,9896.714274
287.413835,19.142581,153.140646,9781.858789
287.416430,95.712904,172.283227,9820.143950
287.419025,114.855485,229.710970,9820.143950
287.421621,19.142581,153.140646,9781.858789
287.424216,57.427742,133.998066,9858.429112
287.426811,114.855485,114.855485,9877.571693
287.429407,57.427742,95.712904,9896.714274
287.431994,153.140646,248.853550,9934.999435
287.434581,76.570323,172.283227,9839.286531
287.437168,114.855485,191.425808,9839.286531
287.439755,38.285162,133.998066,9762.716208
287.442342,57.427742,133.998066,9839.286531
287.444929,38.285162,76.570323,9877.571693
287.447516,76.570323,114.855485,9858.429112
287.450103,19.142581,248.853550,9858.429112
287.452690,19.142581,210.568389,9801.001370
287.455278,38.285162,172.283227,9896.714274
287.457865,153.140646,95.712904,9896.714274
287.460452,76.570323,76.570323,9915.856854
287.463039,38.285162,210.568389,9915.856854
287.465626,76.570323,153.140646,9820.143950
287.468213,133.998066,172.283227,9839.286531
287.470800,76.570323,229.710970,9877.571693
287.473387,76.570323,172.283227,9762.716208
287.475974,57.427742,114.855485,9839.286531
287.478562,38.285162,210.568389,9954.142016
287.481149,19.142581,133.998066,9801.001370
287.483736,95.712904,95.712904,9839.286531
287.486323,76.570323,114.855485,9839.286531
287.488910,76.570323,172.283227,9820.143950
287.491497,-0.000000,153.140646,9858.429112
287.494084,114.855485,153.140646,9820.143950
287.496671,76.570323,114.855485,9877.571693
287.499258,57.427742,210.568389,9915.856854
287.501845,114.855485,172.283227,9839.286531
287.504433,76.570323,114.855485,9877.571693
287.507020,19.142581,153.140646,9781.858789
287.509607,57.427742,114.855485,9801.001370
287.512194,76.570323,210.568389,9839.286531
287.514781,76.570323,191.425808,9858.429112
287.517368,38.285162,210.568389,9915.856854
287.519955,76.570323,153.140646,9839.286531
287.522542,38.285162,248.853550,9858.429112
287.525129,76.570323,229.710970,9801.001370
287.527716,153.140646,95.712904,9896.714274
287.530304,76.570323,210.568389,9858.429112
287.532891,19.142581,133.998066,9896.714274
287.535473,38.285162,248.853550,9858.429112
287.538055,95.712904,210.568389,9877.571693
287.540637,76.570323,153.140646,9877.571693
287.543219,95.712904,210.568389,9858.429112
287.545801,76.570323,114.855485,9877.571693
287.548383,19.142581,210.568389,9839.286531
287.550965,76.570323,153.140646,9839.286531
287.553547,19.142581,248.853550,9820.143950
287.556129,19.142581,191.425808,9896.714274
287.558711,19.142581,172.283227,9781.858789
287.561293,76.570323,191.425808,9877.571693
287.563875,76.570323,114.855485,9877.571693
287.566457,114.855485,210.568389,9934.999435
287.569039,57.427742,248.853550,9820.143950
287.571621,19.142581,153.140646,9820.143950
287.574203,76.570323,172.283227,9858.429112
287.576785,38.285162,114.855485,9839.286531
287.579367,76.570323,153.140646,9820.143950
287.581949,57.427742,114.855485,9896.714274
287.584531,57.427742,153.140646,9877.571693
287.587113,95.712904,287.138712,9858.429112
287.589695,95.712904,191.425808,9858.429112
287.592277,19.142581,133.998066,9781.858789
287.594859,76.570323,114.855485,9934.999435
287.597441,38.285162,114.855485,9915.856854
287.600023,76.570323,153.140646,9858.429112
287.602605,76.570323,153.140646,9762.716208
287.605187,76.570323,248.853550,9801.001370
287.607769,76.570323,191.425808,9801.001370
287.610352,57.427742,133.998066,9934.999435
287.612934,76.570323,153.140646,9877.571693
287.615516,38.285162,76.570323,9820.143950
287.618098,76.570323,114.855485,9877.571693
287.620680,95.712904,114.855485,9858.429112
287.623262,19.142581,191.425808,9781.858789
287.625844,19.142581,210.568389,9820.143950
287.628426,57.427742,95.712904,9820.143950
287.631008,76.570323,114.855485,9877.571693
287.633590,57.427742,133.998066,9934.999435
287.636172,38.285162,76.570323,9877.571693
287.638756,76.570323,210.568389,9839.286531
287.641333,76.570323,210.568389,9858.429112
287.643910,76.570323,210.568389,9877.571693
287.646487,19.142581,172.283227,9820.143950
287.649064,153.140646,133.998066,9934.999435
287.651640,76.570323,210.568389,9858.429112
287.654217,76.570323,210.568389,9820.143950
287.656794,76.570323,210.568389,9877.571693
287.659371,57.427742,95.712904,9781.858789
287.661948,76.570323,172.283227,9801.001370
287.664524,57.427742,95.712904,9896.714274
287.667101,38.285162,172.283227,9915.856854
287.669678,19.142581,210.568389,9858.429112
287.672255,76.570323,210.568389,9858.429112
287.674832,57.427742,153.140646,9858.429112
287.677408,19.142581,191.425808,9896.714274
287.679985,76.570323,172.283227,9820.143950
287.682562,76.570323,172.283227,9762.716208
287.685139,38.285162,133.998066,9762.716208
287.687716,114.855485,172.283227,9762.716208
287.690292,76.570323,172.283227,9801.001370
287.692869,76.570323,172.283227,9858.429112
287.695446,19.142581,133.998066,9839.286531
287.698023,76.570323,172.283227,9839.286531
287.700600,57.427742,95.712904,9858.429112
287.703176,19.142581,191.425808,9896.714274
287.705753,76.570323,191.425808,9820.143950
287.708330,76.570323,172.283227,9762.716208
287.710907,19.142581,153.140646,9781.858789
287.713484,57.427742,95.712904,9801.001370
287.716060,76.570323,133.998066,9915.856854
287.718637,57.427742,248.853550,9954.142016
287.721214,38.285162,191.425808,9896.714274
287.723791,38.285162,248.853550,9858.429112
287.726368,76.570323,210.568389,9820.143950
287.728944,95.712904,114.855485,9877.571693
287.731521,76.570323,172.283227,9820.143950
287.734098,172.283227,133.998066,9858.429112
287.736675,38.285162,248.853550,9915.856854
287.739252,76.570323,229.710970,9858.429112
287.741824,95.712904,210.568389,9820.143950
287.744395,76.570323,172.283227,9858.429112
287.746967,76.570323,133.998066,9915.856854
287.749539,76.570323,114.855485,9820.143950
287.752111,-19.142581,133.998066,9858.429112
287.754683,38.285162,248.853550,9858.429112
287.757255,76.570323,229.710970,9839.286531
287.759827,95.712904,229.710970,9877.571693
287.762399,38.285162,153.140646,9915.856854
287.764970,95.712904,153.140646,9934.999435
287.767542,19.142581,153.140646,9839.286531
287.770114,133.998066,76.570323,9915.856854
287.772686,76.570323,248.853550,9801.001370
287.775258,76.570323,172.283227,9858.429112
287.777830,19.142581,191.425808,9839.286531
287.780402,19.142581,133.998066,9858.429112
287.782973,-0.000000,172.283227,9858.429112
287.785545,76.570323,191.425808,9839.286531
287.788117,95.712904,114.855485,9877.571693
287.790689,95.712904,114.855485,9762.716208
287.793261,57.427742,133.998066,9934.999435
287.795833,19.142581,210.568389,9839.286531
287.798405,19.142581,172.283227,9801.001370
287.800977,76.570323,172.283227,9877.571693
287.803548,95.712904,114.855485,9896.714274
287.806120,76.570323,229.710970,9858.429112
287.808692,57.427742,287.138712,9801.001370
287.811264,76.570323,229.710970,9858.429112
287.813836,95.712904,114.855485,9781.858789
287.816408,153.140646,76.570323,9877.571693
287.818980,114.855485,114.855485,9858.429112
287.821552,57.427742,191.425808,9877.571693
287.824123,76.570323,229.710970,9762.716208
287.826695,76.570323,172.283227,9801.001370
287.829267,133.998066,210.568389,9858.429112
287.831839,114.855485,38.285162,9896.714274
287.834411,76.570323,172.283227,9877.571693
287.836983,19.142581,153.140646,9896.714274
287.839555,76.570323,210.568389,9762.716208
287.842127,76.570323,210.568389,9877.571693
287.844693,191.425808,210.568389,9762.716208
287.847260,133.998066,114.855485,9820.143950
287.849827,76.570323,114.855485,9839.286531
287.852394,114.855485,114.855485,9820.143950
287.854961,76.570323,210.568389,9839.286531
287.857528,114.855485,114.855485,9762.716208
287.860095,114.855485,191.425808,9820.143950
287.862662,76.570323,210.568389,9801.001370
287.865229,57.427742,210.568389,9896.714274
287.867796,19.142581,229.710970,9858.429112
287.870363,-0.000000,172.283227,9896.714274
287.872930,114.855485,229.710970,9858.429112
287.875497,76.570323,114.855485,9858.429112
287.878063,76.570323,191.425808,9820.143950
287.880630,172.283227,76.570323,9839.286531
287.883197,76.570323,172.283227,9877.571693
287.885764,76.570323,191.425808,9858.429112
287.888331,76.570323,229.710970,9877.571693
287.890898,76.570323,153.140646,9877.571693
287.893465,95.712904,229.710970,9762.716208
287.896032,95.712904,210.568389,9801.001370
287.898599,38.285162,133.998066,9877.571693
287.901166,57.427742,114.855485,9839.286531
287.903733,76.570323,172.283227,9820.143950
287.906300,95.712904,210.568389,9858.429112
287.908867,57.427742,287.138712,9896.714274
287.911433,76.570323,172.283227,9877.571693
287.914000,57.427742,172.283227,9762.716208
287.916567,95.712904,57.427742,9839.286531
287.919134,76.570323,114.855485,9877.571693
287.921701,38.285162,76.570323,9762.716208
287.924268,57.427742,287.138712,9839.286531
287.926835,57.427742,248.853550,9954.142016
287.929402,-57.427742,153.140646,9820.143950
287.931969,57.427742,114.855485,9896.714274
287.934536,95.712904,76.570323,9915.856854
287.937103,76.570323,153.140646,9877.571693
287.939670,57.427742,95.712904,9839.286531
287.942237,76.570323,172.283227,9839.286531
287.944803,57.427742,191.425808,9934.999435
287.947367,114.855485,172.283227,9858.429112
287.949930,76.570323,191.425808,9801.001370
287.952493,57.427742,95.712904,9839.286531
287.955056,19.142581,172.283227,9858.429112
287.957619,76.570323,210.568389,9820.143950
287.960182,76.570323,172.283227,9858.429112
287.962746,76.570323,210.568389,9820.143950
287.965309,133.998066,114.855485,9839.286531
287.967872,76.570323,172.283227,9877.571693
287.970435,153.140646,172.283227,9915.856854
287.972998,114.855485,229.710970,9820.143950
287.975562,76.570323,267.996131,9781.858789
287.978125,95.712904,210.568389,9820.143950
287.980688,19.142581,191.425808,9839.286531
287.983251,19.142581,191.425808,9858.429112
287.985814,76.570323,114.855485,9877.571693
287.988377,57.427742,153.140646,9934.999435
287.990941,38.285162,267.996131,9877.571693
287.993504,76.570323,229.710970,9858.429112
287.996067,76.570323,210.568389,9820.143950
287.998630,95.712904,172.283227,9801.001370
288.001193,114.855485,114.855485,9820.143950
288.003756,76.570323,191.425808,9877.571693
288.006320,-0.000000,153.140646,9896.714274
288.008883,57.427742,210.568389,9820.143950
288.011446,57.427742,172.283227,9858.429112
288.014009,76.570323,114.855485,9858.429112
288.016572,114.855485,172.283227,9877.571693
288.019135,76.570323,172.283227,9801.001370
288.021699,-19.142581,133.998066,9820.143950
288.024262,57.427742,191.425808,9877.571693
288.026825,38.285162,248.853550,9858.429112
288.029388,19.142581,172.283227,9839.286531
288.031951,76.570323,172.283227,9877.571693
288.034514,114.855485,95.712904,9839.286531
288.037078,76.570323,114.855485,9877.571693
288.039641,57.427742,133.998066,9934.999435
288.042204,19.142581,172.283227,9820.143950
288.044767,114.855485,287.138712,9858.429112
288.047330,76.570323,191.425808,9801.001370
288.049889,57.427742,95.712904,9858.429112
288.052449,76.570323,153.140646,9877.571693
288.055008,76.570323,133.998066,9877.571693
288.057567,38.285162,133.998066,9858.429112
288.060126,133.998066,229.710970,9877.571693
288.062685,95.712904,191.425808,9877.571693
288.065244,-0.000000,248.853550,9820.143950
288.067803,76.570323,172.283227,9839.286531
288.070362,95.712904,76.570323,9973.284597
288.072921,153.140646,114.855485,9801.001370
288.075481,95.712904,210.568389,9858.429112
288.078040,95.712904,229.710970,9839.286531
288.080599,76.570323,114.855485,9858.429112
288.083158,133.998066,153.140646,9839.286531
288.085717,95.712904,76.570323,9915.856854
288.088276,76.570323,114.855485,9820.143950
288.090835,19.142581,191.425808,9781.858789
288.093394,76.570323,210.568389,9801.001370
288.095953,57.427742,133.998066,9877.571693
288.098513,114.855485,172.283227,9839.286531
288.101072,57.427742,114.855485,9801.001370
288.103631,57.427742,153.140646,9934.999435
288.106190,114.855485,191.425808,9877.571693
288.108749,76.570323,191.425808,9839.286531
288.111308,57.427742,287.138712,9839.286531
288.113867,76.570323,153.140646,9801.001370
288.116426,76.570323,114.855485,9877.571693
288.118985,76.570323,133.998066,9915.856854
288.121545,76.570323,172.283227,9762.716208
288.124104,76.570323,191.425808,9858.429112
288.126663,76.570323,229.710970,9762.716208
288.129222,76.570323,191.425808,9762.716208
288.131781,76.570323,172.283227,9877.571693
288.134340,76.570323,95.712904,9915.856854
288.136899,76.570323,114.855485,9877.571693
288.139458,38.285162,210.568389,9915.856854
288.142017,114.855485,114.855485,9877.571693
288.144576,95.712904,172.283227,9762.716208
288.147136,133.998066,210.568389,9896.714274
288.149695,114.855485,210.568389,9839.286531
288.152251,95.712904,95.712904,9896.714274
288.154807,114.855485,133.998066,9877.571693
288.157363,76.570323,153.140646,9858.429112
288.159919,95.712904,287.138712,9801.001370
288.162475,95.712904,229.710970,9762.716208
288.165031,57.427742,95.712904,9801.001370
288.167588,57.427742,133.998066,9934.999435
288.170144,76.570323,114.855485,9839.286531
288.172700,76.570323,191.425808,9858.429112
288.175256,95.712904,172.283227,9820.143950
288.177812,114.855485,229.710970,9801.001370
288.180368,114.855485,172.283227,9839.286531
288.182924,76.570323,114.855485,9877.571693
288.185480,76.570323,133.998066,9820.143950
288.188036,57.427742,133.998066,9954.142016
288.190593,133.998066,153.140646,9877.571693
288.193149,133.998066,210.568389,9762.716208
288.195705,19.142581,191.425808,9896.714274
288.198261,95.712904,153.140646,9820.143950
288.200817,76.570323,114.855485,9877.571693
288.203373,57.427742,57.427742,9896.714274
288.205929,76.570323,114.855485,9877.571693
288.208485,76.570323,172.283227,9839.286531
288.211042,57.427742,287.138712,9801.001370
288.213598,95.712904,172.283227,9934.999435
288.216154,114.855485,210.568389,9877.571693
288.218710,76.570323,153.140646,9877.571693
288.221266,76.570323,95.712904,9934.999435
288.223822,38.285162,76.570323,9820.143950
288.226378,57.427742,153.140646,9858.429112
288.228934,76.570323,229.710970,9762.716208
288.231490,19.142581,191.425808,9801.001370
288.234047,95.712904,191.425808,9839.286531
288.236603,76.570323,114.855485,9820.143950
288.239159,57.427742,95.712904,9839.286531
288.241715,76.570323,153.140646,9820.143950
288.244271,19.142581,191.425808,9896.714274
288.246827,114.855485,248.853550,9877.571693
288.249383,-19.142581,133.998066,9801.001370
288.251939,19.142581,191.425808,9858.429112
288.254493,57.427742,153.140646,9934.999435
288.257046,57.427742,153.140646,9934.999435
288.259599,76.570323,191.425808,9839.286531
288.262152,76.570323,210.568389,9839.286531
288.264705,76.570323,114.855485,9762.716208
288.267259,57.427742,114.855485,9839.286531
288.269812,57.427742,95.712904,9839.286531
288.272365,114.855485,153.140646,9934.999435
288.274918,114.855485,172.283227,9801.001370
288.277472,57.427742,191.425808,9934.999435
288.280025,76.570323,210.568389,9801.001370
288.282578,114.855485,191.425808,9762.716208
288.285131,76.570323,114.855485,9820.143950
288.287684,95.712904,133.998066,9877.571693
288.290238,76.570323,191.425808,9858.429112
288.292791,114.855485,153.140646,9839.286531
288.295344,-57.427742,191.425808,9839.286531
288.297897,114.855485,210.568389,9858.429112
288.300450,76.570323,210.568389,9762.716208
288.303004,114.855485,114.855485,9896.714274
288.305557,95.712904,172.283227,9858.429112
288.308110,114.855485,172.283227,9877.571693
288.310663,76.570323,229.710970,9801.001370
288.313217,95.712904,229.710970,9896.714274
288.315770,57.427742,172.283227,9934.999435
288.318323,114.855485,172.283227,9858.429112
288.320876,153.140646,114.855485,9896.714274
288.323429,95.712904,172.283227,9877.571693
288.325983,38.285162,153.140646,9858.429112
288.328536,114.855485,267.996131,9896.714274
288.331089,76.570323,229.710970,9839.286531
288.333642,19.142581,153.140646,9801.001370
288.336195,133.998066,114.855485,9877.571693
288.338749,57.427742,133.998066,9934.999435
288.341302,95.712904,153.140646,9820.143950
288.343855,57.427742,229.710970,9896.714274
288.346408,19.142581,248.853550,9858.429112
288.348962,19.142581,191.425808,9801.001370
288.351515,76.570323,153.140646,9877.571693
288.354068,76.570323,210.568389,9820.143950
288.356618,153.140646,57.427742,9858.429112
288.359168,19.142581,153.140646,9896.714274
288.361719,-19.142581,248.853550,9858.429112
288.364269,114.855485,153.140646,9743.573627
288.366819,133.998066,172.283227,9762.716208
288.369369,57.427742,57.427742,9896.714274
288.371919,114.855485,95.712904,9896.714274
288.374470,76.570323,153.140646,9896.714274
288.377020,95.712904,191.425808,9820.143950
288.379570,133.998066,229.710970,9820.143950
288.382120,114.855485,114.855485,9839.286531
288.384671,114.855485,114.855485,9839.286531
288.387221,19.142581,153.140646,9801.001370
288.389771,19.142581,172.283227,9877.571693
288.392321,76.570323,248.853550,9820.143950
288.394871,76.570323,191.425808,9858.429112
288.397422,114.855485,210.568389,9877.571693
288.399972,76.570323,114.855485,9877.571693
288.402522,95.712904,153.140646,9839.286531
288.405072,76.570323,76.570323,9954.142016
288.407622,76.570323,114.855485,9820.143950
288.410173,76.570323,114.855485,9877.571693
288.412723,76.570323,229.710970,9877.571693
288.415273,114.855485,172.283227,9858.429112
288.417823,19.142581,133.998066,9781.858789
288.420373,153.140646,95.712904,9839.286531
288.422924,95.712904,153.140646,9934.999435
288.425474,76.570323,172.283227,9801.001370
288.428024,114.855485,229.710970,9858.429112
288.430574,76.570323,210.568389,9858.429112
288.433125,57.427742,114.855485,9781.858789
288.435675,57.427742,133.998066,9954.142016
288.438225,38.285162,38.285162,9858.429112
288.440775,19.142581,210.568389,9801.001370
288.443325,57.427742,191.425808,9877.571693
288.445876,57.427742,133.998066,9762.716208
288.448426,114.855485,229.710970,9801.001370
288.450976,57.427742,95.712904,9896.714274
288.453526,76.570323,172.283227,9858.429112
288.456076,38.285162,76.570323,9839.286531
288.458625,38.285162,153.140646,9896.714274
288.461173,76.570323,210.568389,9858.429112
288.463722,76.570323,172.283227,9820.143950
288.466270,57.427742,191.425808,9934.999435
288.468819,76.570323,172.283227,9858.429112
288.471367,19.142581,133.998066,9896.714274
288.473916,76.570323,229.710970,9877.571693
288.476464,57.427742,210.568389,9934.999435
288.479013,76.570323,229.710970,9839.286531
288.481561,191.425808,191.425808,9858.429112
288.484110,19.142581,172.283227,9801.001370
288.486658,76.570323,38.285162,9896.714274
288.489207,133.998066,76.570323,9896.714274
288.491755,19.142581,114.855485,9934.999435
288.494304,76.570323,172.283227,9820.143950
288.496852,76.570323,229.710970,9820.143950
288.499400,57.427742,229.710970,9839.286531
288.501949,95.712904,229.710970,9781.858789
288.504497,95.712904,114.855485,9896.714274
288.507046,57.427742,133.998066,9934.999435
288.509594,57.427742,114.855485,9896.714274
288.512143,76.570323,210.568389,9820.143950
288.514691,19.142581,133.998066,9839.286531
288.517240,76.570323,114.855485,9820.143950
288.519788,76.570323,172.283227,9820.143950
288.522337,95.712904,172.283227,9839.286531
288.524885,19.142581,153.140646,9858.429112
288.527434,114.855485,191.425808,9934.999435
288.529982,19.142581,191.425808,9839.286531
288.532531,76.570323,210.568389,9762.716208
288.535079,133.998066,229.710970,9762.716208
288.537628,191.425808,172.283227,9877.571693
288.540176,57.427742,95.712904,9896.714274
288.542725,57.427742,114.855485,9801.001370
288.545273,19.142581,172.283227,9896.714274
288.547821,76.570323,191.425808,9820.143950
288.550370,38.285162,76.570323,9877.571693
288.552918,57.427742,95.712904,9781.858789
288.555467,-0.000000,133.998066,9877.571693
288.558015,57.427742,114.855485,9801.001370
288.560561,57.427742,191.425808,9934.999435
288.563109,114.855485,210.568389,9839.286531
288.565656,76.570323,229.710970,9762.716208
288.568203,210.568389,153.140646,9896.714274
288.570751,153.140646,57.427742,9839.286531
288.573298,76.570323,76.570323,9896.714274
288.575845,38.285162,172.283227,9896.714274
288.578393,95.712904,229.710970,9877.571693
288.580940,114.855485,229.710970,9820.143950
288.583487,133.998066,114.855485,9877.571693
288.586035,76.570323,172.283227,9820.143950
288.588582,-19.142581,133.998066,9820.143950
288.591129,95.712904,114.855485,9877.571693
288.593677,19.142581,191.425808,9896.714274
288.596224,19.142581,248.853550,9801.001370
288.598771,19.142581,133.998066,9896.714274
288.601319,38.285162,38.285162,9858.429112
288.603866,57.427742,172.283227,9934.999435
288.606413,153.140646,344.566454,9858.429112
288.608961,153.140646,344.566454,9781.858789
288.611508,76.570323,172.283227,9858.429112
288.614055,19.142581,-38.285162,9801.001370
288.616603,57.427742,19.142581,9934.999435
288.619150,95.712904,95.712904,9839.286531
288.621698,191.425808,306.281293,9743.573627
288.624245,95.712904,344.566454,9801.001370
288.626792,57.427742,306.281293,9781.858789
288.629340,38.285162,76.570323,9858.429112
288.631887,76.570323,-76.570323,9877.571693
288.634434,57.427742,0.000000,9839.286531
288.636982,114.855485,114.855485,9896.714274
288.639529,38.285162,267.996131,9877.571693
288.642076,38.285162,248.853550,9858.429112
288.644624,95.712904,153.140646,9934.999435
288.647171,191.425808,114.855485,9858.429112
288.649718,76.570323,172.283227,9877.571693
288.652266,19.142581,95.712904,9934.999435
288.654813,38.285162,76.570323,9820.143950
288.657360,57.427742,95.712904,9896.714274
288.659908,19.142581,133.998066,9839.286531
288.662454,95.712904,229.710970,9762.716208
288.665001,95.712904,306.281293,9820.143950
288.667547,76.570323,191.425808,9858.429112
288.670094,57.427742,38.285162,9896.714274
288.672640,95.712904,95.712904,9801.001370
288.675187,19.142581,133.998066,9896.714274
288.677733,76.570323,229.710970,9820.143950
288.680279,57.427742,229.710970,9801.001370
288.682826,95.712904,153.140646,9934.999435
288.685372,95.712904,191.425808,9877.571693
288.687919,38.285162,172.283227,9915.856854
288.690465,133.998066,191.425808,9839.286531
288.693012,19.142581,153.140646,9896.714274
288.695558,95.712904,248.853550,9820.143950
288.698105,76.570323,114.855485,9839.286531
288.700651,19.142581,133.998066,9858.429112
288.703198,-19.142581,191.425808,9896.714274
288.705744,76.570323,229.710970,9820.143950
288.708291,57.427742,306.281293,9858.429112
288.710837,76.570323,229.710970,9858.429112
288.713384,-19.142581,191.425808,9781.858789
288.715930,38.285162,76.570323,9877.571693
288.718477,76.570323,133.998066,9915.856854
288.721023,76.570323,172.283227,9820.143950
288.723570,19.142581,248.853550,9896.714274
288.726116,38.285162,267.996131,9762.716208
288.728663,76.570323,229.710970,9801.001370
288.731209,19.142581,153.140646,9801.001370
288.733756,57.427742,95.712904,9839.286531
288.736302,114.855485,172.283227,9858.429112
288.738848,76.570323,153.140646,9858.429112
288.741395,-19.142581,248.853550,9896.714274
288.743941,95.712904,210.568389,9877.571693
288.746488,19.142581,229.710970,9934.999435
288.749034,76.570323,172.283227,9820.143950
288.751581,76.570323,133.998066,9915.856854
288.754127,-19.142581,95.712904,9877.571693
288.756674,38.285162,172.283227,9915.856854
288.759220,76.570323,363.709035,9896.714274
288.761767,114.855485,287.138712,9839.286531
288.764311,76.570323,210.568389,9801.001370
288.766856,57.427742,95.712904,9781.858789
288.769401,114.855485,114.855485,9839.286531
288.771946,19.142581,210.568389,9896.714274
288.774490,19.142581,248.853550,9896.714274
288.777035,38.285162,325.423874,9820.143950
288.779580,-0.000000,229.710970,9877.571693
288.782125,114.855485,114.855485,9820.143950
288.784669,38.285162,76.570323,9839.286531
288.787214,57.427742,133.998066,9877.571693
288.789759,114.855485,114.855485,9839.286531
288.792303,153.140646,229.710970,9820.143950
288.794848,114.855485,306.281293,9858.429112
288.797393,76.570323,172.283227,9762.716208
288.799938,38.285162,38.285162,9820.143950
288.802482,57.427742,76.570323,9877.571693
288.805027,76.570323,76.570323,9915.856854
288.807572,19.142581,191.425808,9896.714274
288.810116,76.570323,267.996131,9724.431046
288.812661,19.142581,248.853550,9858.429112
288.815206,114.855485,114.855485,9877.571693
288.817751,114.855485,114.855485,9858.429112
288.820295,114.855485,95.712904,9896.714274
288.822840,-19.142581,76.570323,9858.429112
288.825385,19.142581,191.425808,9801.001370
288.827929,76.570323,229.710970,9820.143950
288.830474,76.570323,172.283227,9762.716208
288.833019,57.427742,114.855485,9820.143950
288.835564,57.427742,95.712904,9839.286531
288.838108,95.712904,95.712904,9896.714274
288.840653,38.285162,76.570323,9762.716208
288.843198,38.285162,325.423874,9762.716208
288.845742,76.570323,287.138712,9858.429112
288.848287,133.998066,172.283227,9801.001370
288.850832,153.140646,114.855485,9820.143950
288.853377,114.855485,95.712904,9896.714274
288.855921,76.570323,114.855485,9858.429112
288.858466,114.855485,191.425808,9934.999435
288.861011,57.427742,229.710970,9839.286531
288.863555,38.285162,325.423874,9820.143950
288.866099,19.142581,248.853550,9839.286531
288.868643,76.570323,114.855485,9762.716208
288.871186,153.140646,95.712904,9896.714274
288.873730,76.570323,172.283227,9877.571693
288.876274,19.142581,210.568389,9781.858789
288.878817,38.285162,267.996131,9820.143950
288.881361,38.285162,114.855485,9724.431046
288.883904,95.712904,133.998066,9743.573627
288.886448,133.998066,76.570323,9915.856854
288.888992,76.570323,76.570323,9915.856854
288.891535,38.285162,267.996131,9839.286531
288.894079,76.570323,229.710970,9801.001370
288.896622,76.570323,229.710970,9820.143950
288.899166,114.855485,210.568389,9839.286531
288.901710,76.570323,172.283227,9858.429112
288.904253,95.712904,114.855485,9877.571693
288.906797,76.570323,133.998066,9896.714274
288.909340,19.142581,248.853550,9858.429112
288.911884,153.140646,306.281293,9839.286531
288.914428,95.712904,210.568389,9820.143950
288.916971,114.855485,172.283227,9877.571693
288.919515,76.570323,210.568389,9877.571693
288.922059,38.285162,114.855485,9896.714274
288.924602,38.285162,267.996131,9858.429112
288.927146,114.855485,210.568389,9839.286531
288.929689,95.712904,267.996131,9896.714274
288.932233,76.570323,210.568389,9820.143950
288.934777,57.427742,95.712904,9896.714274
288.937320,57.427742,114.855485,9896.714274
288.939864,19.142581,133.998066,9801.001370
288.942407,95.712904,191.425808,9877.571693
288.944951,38.285162,325.423874,9820.143950
288.947495,57.427742,287.138712,9781.858789
288.950038,95.712904,114.855485,9801.001370
288.952582,95.712904,95.712904,9858.429112
288.955126,-19.142581,76.570323,9858.429112
288.957669,76.570323,229.710970,9820.143950
288.960213,95.712904,95.712904,9896.714274
288.962756,19.142581,248.853550,9801.001370
288.965300,95.712904,267.996131,9724.431046
288.967843,57.427742,172.283227,9820.143950
288.970385,76.570323,38.285162,9915.856854
288.972928,38.285162,172.283227,9915.856854
288.975470,114.855485,172.283227,9877.571693
288.978013,57.427742,229.710970,9724.431046
288.980555,114.855485,229.710970,9801.001370
288.983098,57.427742,114.855485,9801.001370
288.985640,114.855485,114.855485,9858.429112
288.988183,76.570323,76.570323,9915.856854
288.990725,76.570323,191.425808,9820.143950
288.993268,76.570323,287.138712,9762.716208
288.995810,114.855485,210.568389,9820.143950
288.998353,133.998066,114.855485,9858.429112
289.000895,95.712904,57.427742,9858.429112
289.003438,19.142581,133.998066,9801.001370
289.005980,76.570323,210.568389,9762.716208
289.008523,133.998066,153.140646,9820.143950
289.011065,114.855485,191.425808,9877.571693
289.013608,76.570323,153.140646,9877.571693
289.016150,76.570323,114.855485,9762.716208
289.018693,57.427742,95.712904,9839.286531
289.021235,19.142581,76.570323,9915.856854
289.023778,95.712904,172.283227,9801.001370
289.026320,57.427742,229.710970,9896.714274
289.028863,95.712904,229.710970,9858.429112
289.031405,76.570323,210.568389,9762.716208
289.033948,76.570323,172.283227,9762.716208
289.036490,114.855485,95.712904,9839.286531
289.039033,76.570323,114.855485,9877.571693
289.041575,95.712904,210.568389,9858.429112
289.044118,57.427742,248.853550,9934.999435
289.046660,38.285162,248.853550,9839.286531
289.049203,19.142581,153.140646,9781.858789
289.051745,133.998066,114.855485,9820.143950
289.054288,95.712904,76.570323,9915.856854
289.056830,38.285162,76.570323,9877.571693
289.059373,76.570323,191.425808,9877.571693
289.061915,19.142581,191.425808,9801.001370
289.064458,95.712904,133.998066,9934.999435
289.067000,57.427742,133.998066,9858.429112
289.069542,38.285162,133.998066,9877.571693
289.072084,95.712904,114.855485,9877.571693
289.074626,76.570323,210.568389,9820.143950
289.077167,95.712904,229.710970,9839.286531
289.079709,57.427742,287.138712,9801.001370
289.082251,76.570323,172.283227,9820.143950
289.084793,19.142581,133.998066,9839.286531
289.087335,57.427742,95.712904,9896.714274
289.089876,76.570323,76.570323,9896.714274
289.092418,95.712904,191.425808,9934.999435
289.094960,172.283227,287.138712,9801.001370
289.097502,76.570323,229.710970,9858.429112
289.100044,76.570323,133.998066,9858.429112
289.102585,19.142581,76.570323,9877.571693
289.105127,19.142581,133.998066,9896.714274
289.107669,38.285162,133.998066,9839.286531
289.110211,114.855485,210.568389,9762.716208
289.112753,38.285162,325.423874,9820.143950
289.115294,19.142581,153.140646,9858.429112
289.117836,76.570323,114.855485,9858.429112
289.120378,76.570323,38.285162,9915.856854
289.122920,-0.000000,95.712904,9877.571693
289.125462,38.285162,191.425808,9915.856854
289.128003,76.570323,325.423874,9896.714274
289.130545,76.570323,287.138712,9762.716208
289.133087,114.855485,229.710970,9858.429112
289.135629,76.570323,76.570323,9896.714274
289.138171,95.712904,95.712904,9839.286531
289.140712,57.427742,210.568389,9839.286531
289.143254,57.427742,306.281293,9858.429112
289.145796,38.285162,267.996131,9762.716208
289.148338,95.712904,248.853550,9743.573627
289.150880,57.427742,95.712904,9839.286531
289.153421,76.570323,57.427742,9858.429112
289.155963,76.570323,76.570323,9896.714274
289.158505,19.142581,153.140646,9858.429112
289.161047,57.427742,306.281293,9858.429112
289.163589,19.142581,248.853550,9839.286531
289.166130,95.712904,76.570323,9896.714274
289.168672,95.712904,95.712904,9896.714274
289.171213,57.427742,95.712904,9858.429112
289.173754,19.142581,133.998066,9896.714274
289.176295,-38.285162,325.423874,9820.143950
289.178836,114.855485,229.710970,9820.143950
289.181377,76.570323,210.568389,9877.571693
289.183918,76.570323,76.570323,9801.001370
289.186459,95.712904,114.855485,9839.286531
289.188999,19.142581,57.427742,9973.284597
289.191540,19.142581,191.425808,9781.858789
289.194081,57.427742,287.138712,9839.286531
289.196622,76.570323,172.283227,9858.429112
289.199163,191.425808,210.568389,9762.716208
289.201704,153.140646,95.712904,9858.429112
289.204245,114.855485,76.570323,9877.571693
289.206786,38.285162,210.568389,9915.856854
289.209327,76.570323,210.568389,9839.286531
289.211868,57.427742,153.140646,9934.999435
289.214409,95.712904,172.283227,9820.143950
289.216950,57.427742,95.712904,9781.858789
289.219491,114.855485,114.855485,9820.143950
289.222031,114.855485,114.855485,9877.571693
289.224572,-0.000000,191.425808,9896.714274
289.227113,95.712904,153.140646,9934.999435
289.229654,76.570323,229.710970,9820.143950
289.232195,76.570323,114.855485,9877.571693
289.234736,133.998066,114.855485,9820.143950
289.237277,57.427742,38.285162,9839.286531
289.239818,19.142581,172.283227,9801.001370
289.242359,19.142581,172.283227,9839.286531
289.244900,38.285162,363.709035,9801.001370
289.247441,114.855485,229.710970,9839.286531
289.249982,95.712904,172.283227,9762.716208
289.252523,57.427742,38.285162,9858.429112
289.255063,76.570323,76.570323,9915.856854
289.257604,114.855485,229.710970,9820.143950
289.260145,57.427742,287.138712,9801.001370
289.262686,38.285162,325.423874,9877.571693
289.265227,76.570323,172.283227,9839.286531
289.267768,76.570323,38.285162,9915.856854
289.270309,38.285162,95.712904,9877.571693
289.272849,19.142581,153.140646,9839.286531
289.275390,19.142581,248.853550,9781.858789
289.277930,76.570323,287.138712,9858.429112
289.280470,19.142581,191.425808,9839.286531
289.283011,76.570323,172.283227,9762.716208
289.285551,57.427742,114.855485,9801.001370
289.288091,76.570323,133.998066,9877.571693
289.290632,76.570323,210.568389,9858.429112
289.293172,76.570323,210.568389,9858.429112
289.295713,57.427742,229.710970,9801.001370
289.298253,19.142581,153.140646,9781.858789
289.300793,114.855485,153.140646,9762.716208
289.303334,95.712904,114.855485,9896.714274
289.305874,38.285162,172.283227,9915.856854
289.308414,19.142581,267.996131,9896.714274
289.310955,95.712904,306.281293,9858.429112
289.313495,76.570323,210.568389,9801.001370
289.316035,76.570323,210.568389,9762.716208
289.318576,114.855485,114.855485,9858.429112
289.321116,57.427742,95.712904,9896.714274
289.323657,-0.000000,172.283227,9915.856854
289.326197,38.285162,133.998066,9877.571693
289.328737,19.142581,229.710970,9934.999435
289.331278,-19.142581,248.853550,9781.858789
289.333818,114.855485,172.283227,9877.571693
289.336358,57.427742,114.855485,9801.001370
289.338899,57.427742,57.427742,9896.714274
289.341439,19.142581,133.998066,9820.143950
289.343979,76.570323,229.710970,9801.001370
289.346520,76.570323,210.568389,9820.143950
289.349060,153.140646,229.710970,9801.001370
289.351600,76.570323,153.140646,9762.716208
289.354141,114.855485,95.712904,9896.714274
289.356681,19.142581,191.425808,9801.001370
289.359222,38.285162,191.425808,9934.999435
289.361762,95.712904,210.568389,9820.143950
289.364302,76.570323,172.283227,9858.429112
289.366843,114.855485,114.855485,9839.286531
289.369383,114.855485,114.855485,9877.571693
289.371923,38.285162,76.570323,9877.571693
289.374463,76.570323,172.283227,9762.716208
289.377003,19.142581,248.853550,9858.429112
289.379543,76.570323,229.710970,9762.716208
289.382082,133.998066,172.283227,9801.001370
289.384622,133.998066,153.140646,9820.143950
289.387162,114.855485,76.570323,9915.856854
289.389702,19.142581,172.283227,9896.714274
289.392242,57.427742,191.425808,9934.999435
289.394781,57.427742,248.853550,9877.571693
289.397321,19.142581,153.140646,9896.714274
289.399861,38.285162,133.998066,9858.429112
289.402401,95.712904,57.427742,9858.429112
289.404940,95.712904,114.855485,9858.429112
289.407480,19.142581,133.998066,9820.143950
289.410020,95.712904,229.710970,9839.286531
289.412560,57.427742,287.138712,9858.429112
289.415100,76.570323,172.283227,9858.429112
289.417639,133.998066,114.855485,9839.286531
289.420179,114.855485,76.570323,9915.856854
289.422719,76.570323,153.140646,9858.429112
289.425259,19.142581,153.140646,9896.714274
289.427799,19.142581,248.853550,9801.001370
289.430338,19.142581,248.853550,9781.858789
289.432878,210.568389,153.140646,9858.429112
289.435418,76.570323,114.855485,9858.429112
289.437958,153.140646,133.998066,9877.571693
289.440497,76.570323,172.283227,9762.716208
289.443037,153.140646,153.140646,9877.571693
289.445577,76.570323,172.283227,9858.429112
289.448117,76.570323,210.568389,9762.716208
289.450657,76.570323,133.998066,9896.714274
289.453196,76.570323,114.855485,9877.571693
289.455736,38.285162,38.285162,9934.999435
289.458276,-0.000000,133.998066,9896.714274
289.460816,19.142581,191.425808,9781.858789
289.463355,57.427742,229.710970,9820.143950
289.465895,95.712904,172.283227,9762.716208
289.468435,95.712904,95.712904,9896.714274
289.470975,114.855485,114.855485,9877.571693
289.473515,114.855485,114.855485,9877.571693
289.476054,95.712904,229.710970,9820.143950
289.478592,57.427742,229.710970,9839.286531
289.481131,95.712904,191.425808,9934.999435
289.483670,76.570323,114.855485,9858.429112
289.486209,19.142581,153.140646,9801.001370
289.488748,76.570323,172.283227,9877.571693
289.491287,19.142581,153.140646,9896.714274
289.493826,-57.427742,267.996131,9839.286531
289.496365,114.855485,229.710970,9858.429112
289.498904,114.855485,210.568389,9839.286531
289.501443,57.427742,76.570323,9801.001370
289.503981,76.570323,114.855485,9820.143950
289.506520,76.570323,114.855485,9877.571693
289.509059,76.570323,172.283227,9858.429112
289.511598,-0.000000,248.853550,9801.001370
289.514137,76.570323,210.568389,9820.143950
289.516676,172.283227,114.855485,9896.714274
289.519215,153.140646,114.855485,9858.429112
289.521754,133.998066,76.570323,9915.856854
289.524293,76.570323,210.568389,9877.571693
289.526832,38.285162,191.425808,9877.571693
289.529371,76.570323,210.568389,9858.429112
289.531909,95.712904,172.283227,9934.999435
289.534448,57.427742,191.425808,9743.573627
289.536987,76.570323,114.855485,9820.143950
289.539526,57.427742,133.998066,9934.999435
289.542065,76.570323,210.568389,9858.429112
289.544604,57.427742,287.138712,9839.286531
289.547143,57.427742,229.710970,9896.714274
289.549682,19.142581,95.712904,9934.999435
289.552221,38.285162,95.712904,9801.001370
289.554760,95.712904,114.855485,9877.571693
289.557298,57.427742,172.283227,9915.856854
289.559837,19.142581,210.568389,9839.286531
289.562376,19.142581,191.425808,9839.286531
289.564915,114.855485,153.140646,9877.571693
289.567454,133.998066,76.570323,9915.856854
289.569993,95.712904,95.712904,9801.001370
289.572532,95.712904,191.425808,9877.571693
289.575071,76.570323,172.283227,9762.716208
289.577607,19.142581,153.140646,9781.858789
289.580145,114.855485,153.140646,9839.286531
289.582683,19.142581,153.140646,9781.858789
289.585221,57.427742,95.712904,9839.286531
289.587759,95.712904,172.283227,9858.429112
289.590297,57.427742,248.853550,9934.999435
289.592836,57.427742,172.283227,9915.856854
289.595374,57.427742,306.281293,9801.001370
289.597912,153.140646,153.140646,9934.999435
289.600450,76.570323,114.855485,9858.429112
289.602988,57.427742,57.427742,9781.858789
289.605526,57.427742,114.855485,9877.571693
289.608065,38.285162,114.855485,9781.858789
289.610603,76.570323,287.138712,9877.571693
289.613141,95.712904,287.138712,9877.571693
289.615679,76.570323,210.568389,9762.716208
289.618217,76.570323,114.855485,9820.143950
289.620755,57.427742,57.427742,9858.429112
289.623293,38.285162,133.998066,9801.001370
289.625832,19.142581,172.283227,9858.429112
289.628370,76.570323,191.425808,9915.856854
289.630908,76.570323,248.853550,9820.143950
289.633446,76.570323,153.140646,9820.143950
289.635984,153.140646,95.712904,9801.001370
289.638522,57.427742,95.712904,9896.714274
289.641060,76.570323,114.855485,9877.571693
289.643599,76.570323,229.710970,9820.143950
289.646137,19.142581,191.425808,9801.001370
289.648675,133.998066,191.425808,9858.429112
289.651213,95.712904,172.283227,9877.571693
289.653751,38.285162,76.570323,9858.429112
289.656289,19.142581,191.425808,9801.001370
289.658828,57.427742,153.140646,9934.999435
289.661366,19.142581,248.853550,9801.001370
289.663904,76.570323,210.568389,9877.571693
289.666442,76.570323,114.855485,9858.429112
289.668980,76.570323,114.855485,9820.143950
289.671518,76.570323,114.855485,9858.429112
289.674056,57.427742,191.425808,9877.571693
289.676595,95.712904,248.853550,9858.429112
289.679132,133.998066,210.568389,9877.571693
289.681670,76.570323,172.283227,9820.143950
289.684208,38.285162,76.570323,9820.143950
289.686745,19.142581,153.140646,9858.429112
289.689283,19.142581,114.855485,9877.571693
289.691820,19.142581,210.568389,9839.286531
289.694358,38.285162,229.710970,9915.856854
289.696896,95.712904,191.425808,9877.571693
289.699433,95.712904,172.283227,9820.143950
289.701971,114.855485,114.855485,9896.714274
289.704509,38.285162,38.285162,9762.716208
289.707046,76.570323,210.568389,9877.571693
289.709584,38.285162,229.710970,9896.714274
289.712122,114.855485,172.283227,9820.143950
289.714659,114.855485,191.425808,9934.999435
289.717197,76.570323,229.710970,9820.143950
289.719735,57.427742,95.712904,9896.714274
289.722272,76.570323,114.855485,9820.143950
289.724810,76.570323,153.140646,9877.571693
289.727347,76.570323,191.425808,9801.001370
289.729885,76.570323,172.283227,9858.429112
289.732423,19.142581,172.283227,9896.714274
289.734960,57.427742,153.140646,9858.429112
289.737498,114.855485,133.998066,9877.571693
289.740036,57.427742,133.998066,9973.284597
289.742573,19.142581,172.283227,9896.714274
289.745111,76.570323,114.855485,9839.286531
289.747649,19.142581,191.425808,9896.714274
289.750186,95.712904,95.712904,9839.286531
289.752724,95.712904,114.855485,9801.001370
289.755262,76.570323,114.855485,9877.571693
289.757799,76.570323,172.283227,9820.143950
289.760337,133.998066,191.425808,9839.286531
289.762874,57.427742,153.140646,9743.573627
289.765412,76.570323,172.283227,9839.286531
289.767950,114.855485,114.855485,9858.429112
289.770487,95.712904,95.712904,9858.429112
289.773025,19.142581,133.998066,9896.714274
289.775563,114.855485,172.283227,9801.001370
289.778100,76.570323,210.568389,9801.001370
289.780598,95.712904,210.568389,9877.571693
289.783096,133.998066,172.283227,9820.143950
289.785594,114.855485,172.283227,9858.429112
289.788092,-0.000000,95.712904,9877.571693
289.790590,57.427742,153.140646,9934.999435
289.793088,19.142581,191.425808,9839.286531
289.795586,114.855485,191.425808,9820.143950
289.798084,19.142581,191.425808,9858.429112
289.800582,57.427742,133.998066,9858.429112
289.803080,19.142581,133.998066,9781.858789
289.805578,19.142581,95.712904,9877.571693
289.808076,57.427742,114.855485,9839.286531
289.810573,19.142581,191.425808,9839.286531
289.813071,-0.000000,248.853550,9858.429112
289.815569,76.570323,191.425808,9820.143950
289.818067,76.570323,229.710970,9877.571693
289.820565,57.427742,95.712904,9896.714274
289.823063,57.427742,114.855485,9839.286531
289.825561,57.427742,229.710970,9896.714274
289.828059,76.570323,210.568389,9801.001370
289.830557,76.570323,114.855485,9839.286531
289.833055,95.712904,76.570323,9896.714274
289.835553,57.427742,95.712904,9896.714274
289.838051,19.142581,172.283227,9896.714274
289.840549,-0.000000,248.853550,9839.286531
289.843047,76.570323,210.568389,9839.286531
289.845545,153.140646,191.425808,9934.999435
289.848042,133.998066,210.568389,9877.571693
289.850540,76.570323,153.140646,9820.143950
289.853038,76.570323,172.283227,9820.143950
289.855536,38.285162,114.855485,9915.856854
289.858034,76.570323,229.710970,9877.571693
289.860532,-0.000000,325.423874,9858.429112
289.863030,38.285162,267.996131,9839.286531
289.865528,114.855485,210.568389,9858.429112
289.868026,57.427742,95.712904,9896.714274
289.870524,76.570323,153.140646,9820.143950
289.873022,76.570323,210.568389,9839.286531
289.875520,-19.142581,248.853550,9801.001370
289.878018,76.570323,287.138712,9762.716208
289.880524,76.570323,114.855485,9858.429112
289.883030,57.427742,95.712904,9858.429112
289.885536,57.427742,114.855485,9839.286531
289.888042,95.712904,172.283227,9801.001370
289.890549,76.570323,153.140646,9896.714274
289.893055,57.427742,248.853550,9877.571693
289.895561,114.855485,210.568389,9801.001370
289.898067,76.570323,153.140646,9839.286531
289.900573,57.427742,95.712904,9896.714274
289.903080,76.570323,172.283227,9820.143950
289.905586,76.570323,114.855485,9858.429112
289.908092,114.855485,210.568389,9820.143950
289.910598,76.570323,210.568389,9801.001370
289.913104,57.427742,133.998066,9877.571693
289.915611,38.285162,76.570323,9820.143950
289.918117,38.285162,133.998066,9934.999435
289.920623,76.570323,172.283227,9877.571693
289.923129,57.427742,229.710970,9858.429112
289.925635,76.570323,210.568389,9858.429112
289.928141,76.570323,191.425808,9839.286531
289.930648,76.570323,114.855485,9858.429112
289.933154,76.570323,114.855485,9801.001370
289.935660,114.855485,95.712904,9781.858789
289.938166,76.570323,153.140646,9801.001370
289.940672,76.570323,210.568389,9858.429112
289.943179,95.712904,114.855485,9820.143950
289.945685,38.285162,172.283227,9896.714274
289.948191,57.427742,114.855485,9839.286531
289.950697,95.712904,95.712904,9896.714274
289.953203,153.140646,172.283227,9934.999435
289.955710,76.570323,133.998066,9896.714274
289.958216,19.142581,248.853550,9839.286531
289.960722,19.142581,133.998066,9820.143950
289.963228,57.427742,95.712904,9801.001370
289.965734,19.142581,153.140646,9839.286531
289.968240,76.570323,114.855485,9820.143950
289.970747,57.427742,95.712904,9839.286531
289.973253,38.285162,210.568389,9896.714274
289.975759,19.142581,267.996131,9858.429112
289.978265,38.285162,287.138712,9858.429112
289.980779,114.855485,172.283227,9858.429112
289.983293,57.427742,95.712904,9839.286531
289.985807,-0.000000,191.425808,9896.714274
289.988321,19.142581,191.425808,9858.429112
289.990835,19.142581,267.996131,9839.286531
289.993349,95.712904,267.996131,9934.999435
289.995863,57.427742,114.855485,9820.143950
289.998376,95.712904,95.712904,9801.001370
290.000890,57.427742,114.855485,9858.429112
290.003404,19.142581,153.140646,9858.429112
290.005918,19.142581,248.853550,9896.714274
290.008432,114.855485,210.568389,9762.716208
290.010946,76.570323,210.568389,9839.286531
290.013460,153.140646,95.712904,9839.286531
290.015974,76.570323,76.570323,9839.286531
290.018488,76.570323,172.283227,9858.429112
290.021002,57.427742,287.138712,9858.429112
290.023516,76.570323,229.710970,9820.143950
290.026029,95.712904,229.710970,9820.143950
290.028543,76.570323,191.425808,9858.429112
290.031057,57.427742,57.427742,9839.286531
290.033571,76.570323,76.570323,9915.856854
290.036085,57.427742,114.855485,9839.286531
290.038599,76.570323,210.568389,9801.001370
290.041113,57.427742,210.568389,9934.999435
290.043627,19.142581,172.283227,9896.714274
290.046141,114.855485,172.283227,9762.716208
290.048655,95.712904,114.855485,9801.001370
290.051168,95.712904,153.140646,9839.286531
290.053682,57.427742,153.140646,9934.999435
290.056196,76.570323,229.710970,9858.429112
290.058710,76.570323,210.568389,9762.716208
290.061224,57.427742,229.710970,9896.714274
290.063738,76.570323,114.855485,9858.429112
290.066252,114.855485,95.712904,9858.429112
290.068766,38.285162,114.855485,9954.142016
290.071280,38.285162,172.283227,9915.856854
290.073794,-19.142581,248.853550,9839.286531
290.076308,76.570323,172.283227,9801.001370
290.078821,133.998066,210.568389,9762.716208
290.081342,57.427742,76.570323,9877.571693
290.083862,76.570323,114.855485,9858.429112
290.086382,19.142581,133.998066,9896.714274
290.088902,-0.000000,133.998066,9820.143950
290.091422,95.712904,133.998066,9877.571693
290.093942,114.855485,191.425808,9801.001370
290.096462,114.855485,210.568389,9839.286531
290.098982,76.570323,172.283227,9877.571693
290.101502,153.140646,95.712904,9839.286531
290.104022,76.570323,210.568389,9858.429112
290.106543,19.142581,153.140646,9820.143950
290.109063,57.427742,287.138712,9896.714274
290.111583,76.570323,153.140646,9839.286531
290.114103,76.570323,114.855485,9839.286531
290.116623,57.427742,95.712904,9896.714274
290.119143,76.570323,153.140646,9877.571693
290.121663,76.570323,229.710970,9858.429112
290.124183,114.855485,210.568389,9877.571693
290.126703,19.142581,210.568389,9781.858789
290.129223,19.142581,114.855485,9858.429112
290.131743,114.855485,95.712904,9858.429112
290.134264,76.570323,153.140646,9896.714274
290.136784,76.570323,114.855485,9839.286531
290.139304,76.570323,229.710970,9877.571693
290.141824,95.712904,287.138712,9801.001370
290.144344,76.570323,229.710970,9820.143950
290.146864,76.570323,114.855485,9762.716208
290.149384,76.570323,114.855485,9858.429112
290.151904,57.427742,153.140646,9877.571693
290.154424,76.570323,210.568389,9877.571693
290.156944,19.142581,153.140646,9858.429112
290.159465,76.570323,172.283227,9839.286531
290.161985,133.998066,210.568389,9801.001370
290.164505,95.712904,95.712904,9839.286531
290.167025,19.142581,153.140646,9858.429112
290.169545,95.712904,153.140646,9934.999435
290.172065,57.427742,114.855485,9781.858789
290.174585,19.142581,153.140646,9858.429112
290.177105,57.427742,287.138712,9801.001370
290.179625,76.570323,172.283227,9858.429112
290.182150,76.570323,114.855485,9877.571693
290.184675,57.427742,76.570323,9820.143950
290.187200,57.427742,191.425808,9877.571693
290.189725,19.142581,153.140646,9896.714274
290.192250,76.570323,172.283227,9839.286531
290.194775,114.855485,172.283227,9858.429112
290.197300,114.855485,95.712904,9724.431046
290.199825,114.855485,114.855485,9896.714274
290.202350,133.998066,153.140646,9820.143950
290.204875,57.427742,114.855485,9820.143950
290.207400,114.855485,210.568389,9877.571693
290.209925,76.570323,210.568389,9820.143950
290.212450,76.570323,172.283227,9820.143950
290.214975,114.855485,114.855485,9839.286531
290.217500,76.570323,114.855485,9877.571693
290.220025,76.570323,210.568389,9762.716208
290.222550,57.427742,153.140646,9954.142016
290.225075,19.142581,191.425808,9820.143950
290.227599,57.427742,191.425808,9743.573627
290.230124,19.142581,153.140646,9801.001370
290.232649,114.855485,114.855485,9877.571693
290.235174,38.285162,76.570323,9839.286531
290.237699,57.427742,114.855485,9762.716208
290.240224,76.570323,287.138712,9858.429112
290.242749,76.570323,210.568389,9858.429112
290.245274,133.998066,191.425808,9820.143950
290.247799,76.570323,114.855485,9858.429112
290.250324,57.427742,95.712904,9820.143950
290.252849,76.570323,172.283227,9858.429112
290.255374,-0.000000,191.425808,9896.714274
290.257899,-19.142581,248.853550,9877.571693
290.260424,19.142581,153.140646,9896.714274
290.262949,76.570323,114.855485,9858.429112
290.265474,38.285162,76.570323,9762.716208
290.267999,57.427742,114.855485,9820.143950
290.270524,114.855485,229.710970,9820.143950
290.273049,76.570323,191.425808,9820.143950
290.275574,95.712904,172.283227,9762.716208
290.278099,76.570323,114.855485,9839.286531
290.280624,76.570323,114.855485,9839.286531
290.283153,38.285162,76.570323,9877.571693
290.285682,57.427742,153.140646,9934.999435
290.288211,114.855485,229.710970,9839.286531
290.290740,57.427742,229.710970,9896.714274
290.293269,114.855485,172.283227,9858.429112
290.295798,76.570323,114.855485,9820.143950
290.298327,38.285162,76.570323,9801.001370
290.300856,38.285162,38.285162,9820.143950
290.303385,76.570323,210.568389,9877.571693
290.305914,95.712904,229.710970,9801.001370
290.308443,76.570323,133.998066,9839.286531
290.310972,76.570323,76.570323,9896.714274
290.313501,57.427742,114.855485,9896.714274
290.316030,95.712904,114.855485,9801.001370
290.318558,38.285162,76.570323,9858.429112
290.321087,57.427742,133.998066,9877.571693
290.323616,95.712904,229.710970,9820.143950
290.326145,57.427742,191.425808,9934.999435
290.328674,19.142581,172.283227,9858.429112
290.331203,-0.000000,133.998066,9896.714274
290.333732,76.570323,76.570323,9915.856854
290.336261,19.142581,210.568389,9896.714274
290.338790,19.142581,210.568389,9858.429112
290.341319,114.855485,191.425808,9877.571693
290.343848,76.570323,172.283227,9762.716208
290.346377,153.140646,133.998066,9934.999435
290.348906,95.712904,95.712904,9915.856854
290.351435,57.427742,95.712904,9896.714274
290.353964,19.142581,210.568389,9820.143950
290.356493,19.142581,191.425808,9896.714274
290.359022,76.570323,267.996131,9724.431046
290.361551,133.998066,114.855485,9820.143950
290.364080,57.427742,95.712904,9839.286531
290.366609,153.140646,95.712904,9781.858789
290.369138,19.142581,172.283227,9858.429112
290.371667,57.427742,248.853550,9877.571693
290.374196,57.427742,325.423874,9896.714274
290.376725,19.142581,210.568389,9781.858789
290.379254,114.855485,172.283227,9858.429112
290.381783,57.427742,76.570323,9858.429112
290.384315,19.142581,95.712904,9858.429112
290.386847,76.570323,172.283227,9762.716208
290.389379,114.855485,325.423874,9915.856854
290.391911,-0.000000,229.710970,9858.429112
290.394443,114.855485,172.283227,9858.429112
290.396975,76.570323,114.855485,9762.716208
290.399507,76.570323,114.855485,9858.429112
290.402039,114.855485,114.855485,9896.714274
290.404571,76.570323,210.568389,9820.143950
290.407103,114.855485,210.568389,9762.716208
290.409635,76.570323,153.140646,9877.571693
290.412167,19.142581,191.425808,9896.714274
290.414699,57.427742,153.140646,9954.142016
290.417231,38.285162,76.570323,9858.429112
290.419763,95.712904,133.998066,9915.856854
290.422295,114.855485,210.568389,9877.571693
290.424827,114.855485,114.855485,9858.429112
290.427359,172.283227,191.425808,9705.288466
290.429891,76.570323,172.283227,9839.286531
290.432423,114.855485,114.855485,9858.429112
290.434955,76.570323,172.283227,9877.571693
290.437487,38.285162,172.283227,9781.858789
290.440019,19.142581,248.853550,9781.858789
290.442551,133.998066,210.568389,9839.286531
290.445083,95.712904,114.855485,9839.286531
290.447615,19.142581,133.998066,9781.858789
290.450146,76.570323,38.285162,9896.714274
290.452678,57.427742,153.140646,9934.999435
290.455210,76.570323,191.425808,9877.571693
290.457742,38.285162,325.423874,9877.571693
290.460274,19.142581,248.853550,9781.858789
290.462806,133.998066,210.568389,9820.143950
290.465338,114.855485,95.712904,9820.143950
290.467870,76.570323,153.140646,9877.571693
290.470402,76.570323,114.855485,9801.001370
290.472934,38.285162,191.425808,9801.001370
290.475466,57.427742,248.853550,9934.999435
290.477998,76.570323,153.140646,9839.286531
290.480530,76.570323,172.283227,9858.429112
290.483062,76.570323,210.568389,9858.429112
290.485596,95.712904,210.568389,9934.999435
290.488130,76.570323,114.855485,9858.429112
290.490664,76.570323,229.710970,9762.716208
290.493198,57.427742,114.855485,9839.286531
290.495732,76.570323,210.568389,9801.001370
290.498266,76.570323,210.568389,9839.286531
290.500800,19.142581,210.568389,9896.714274
290.503334,38.285162,248.853550,9858.429112
290.505869,19.142581,153.140646,9839.286531
290.508403,114.855485,172.283227,9877.571693
290.510937,19.142581,133.998066,9858.429112
290.513471,95.712904,172.283227,9839.286531
290.516005,57.427742,153.140646,9934.999435
290.518539,95.712904,210.568389,9839.286531
290.521073,38.285162,248.853550,9839.286531
290.523607,57.427742,248.853550,9877.571693
290.526141,57.427742,153.140646,9934.999435
290.528675,76.570323,172.283227,9839.286531
290.531209,19.142581,172.283227,9801.001370
290.533743,76.570323,114.855485,9839.286531
290.536277,38.285162,133.998066,9839.286531
290.538811,76.570323,210.568389,9858.429112
290.541345,133.998066,114.855485,9896.714274
290.543879,76.570323,153.140646,9858.429112
290.546414,76.570323,248.853550,9839.286531
290.548948,76.570323,172.283227,9896.714274
290.551482,57.427742,95.712904,9896.714274
290.554016,76.570323,210.568389,9839.286531
290.556550,95.712904,210.568389,9820.143950
290.559084,133.998066,210.568389,9877.571693
290.561618,114.855485,153.140646,9934.999435
290.564152,38.285162,114.855485,9896.714274
290.566686,38.285162,76.570323,9877.571693
290.569220,76.570323,210.568389,9820.143950
290.571754,57.427742,153.140646,9934.999435
290.574288,57.427742,287.138712,9801.001370
290.576822,76.570323,229.710970,9877.571693
290.579356,76.570323,172.283227,9858.429112
290.581890,38.285162,114.855485,9915.856854
290.584424,57.427742,172.283227,9934.999435
290.586925,76.570323,191.425808,9877.571693
290.589425,95.712904,287.138712,9801.001370
290.591926,133.998066,248.853550,9839.286531
290.594426,76.570323,210.568389,9877.571693
290.596926,76.570323,114.855485,9820.143950
290.599427,57.427742,38.285162,9896.714274
290.601927,19.142581,153.140646,9896.714274
290.604427,57.427742,287.138712,9781.858789
290.606928,57.427742,306.281293,9801.001370
290.609428,76.570323,114.855485,9858.429112
290.611928,57.427742,57.427742,9839.286531
290.614429,19.142581,95.712904,9934.999435
290.616929,19.142581,133.998066,9839.286531
290.619429,76.570323,153.140646,9762.716208
290.621930,19.142581,210.568389,9896.714274
290.624430,114.855485,153.140646,9934.999435
290.626930,76.570323,172.283227,9762.716208
290.629431,76.570323,172.283227,9839.286531
290.631931,114.855485,76.570323,9896.714274
290.634431,57.427742,95.712904,9781.858789
290.636932,95.712904,114.855485,9877.571693
290.639432,19.142581,153.140646,9858.429112
290.641932,76.570323,210.568389,9820.143950
290.644433,57.427742,153.140646,9934.999435
290.646933,19.142581,210.568389,9896.714274
290.649433,19.142581,133.998066,9820.143950
290.651933,95.712904,172.283227,9877.571693
290.654434,38.285162,153.140646,9896.714274
290.656934,57.427742,229.710970,9801.001370
290.659434,76.570323,172.283227,9820.143950
290.661935,95.712904,114.855485,9858.429112
290.664435,114.855485,172.283227,9820.143950
290.666935,76.570323,76.570323,9915.856854
290.669436,19.142581,95.712904,9877.571693
290.671936,19.142581,210.568389,9781.858789
290.674436,38.285162,229.710970,9781.858789
290.676937,95.712904,210.568389,9877.571693
290.679437,76.570323,172.283227,9820.143950
290.681937,57.427742,114.855485,9896.714274
290.684438,95.712904,114.855485,9839.286531
290.686947,19.142581,153.140646,9839.286531
290.689457,76.570323,153.140646,9820.143950
290.691966,-19.142581,133.998066,9839.286531
290.694476,95.712904,95.712904,9858.429112
290.696985,57.427742,95.712904,9896.714274
290.699494,-19.142581,133.998066,9839.286531
290.702004,76.570323,114.855485,9762.716208
290.704513,114.855485,172.283227,9839.286531
290.707023,76.570323,172.283227,9877.571693
290.709532,57.427742,76.570323,9762.716208
290.712042,38.285162,76.570323,9877.571693
290.714551,76.570323,172.283227,9801.001370
290.717060,76.570323,172.283227,9858.429112
290.719570,153.140646,191.425808,9934.999435
290.722079,76.570323,114.855485,9877.571693
290.724589,19.142581,133.998066,9896.714274
290.727098,57.427742,114.855485,9858.429112
290.729608,76.570323,172.283227,9858.429112
290.732117,-0.000000,248.853550,9858.429112
290.734626,133.998066,133.998066,9839.286531
290.737136,133.998066,172.283227,9934.999435
290.739645,57.427742,95.712904,9801.001370
290.742155,-0.000000,153.140646,9896.714274
290.744664,76.570323,114.855485,9877.571693
290.747174,19.142581,133.998066,9839.286531
290.749683,133.998066,114.855485,9877.571693
290.752192,76.570323,229.710970,9877.571693
290.754702,19.142581,172.283227,9839.286531
290.757211,19.142581,133.998066,9858.429112
290.759721,76.570323,172.283227,9877.571693
290.762230,76.570323,114.855485,9820.143950
290.764740,76.570323,172.283227,9820.143950
290.767249,76.570323,114.855485,9820.143950
290.769758,76.570323,210.568389,9839.286531
290.772268,95.712904,210.568389,9858.429112
290.774777,57.427742,229.710970,9858.429112
290.777287,57.427742,95.712904,9839.286531
290.779796,57.427742,95.712904,9896.714274
290.782306,95.712904,172.283227,9820.143950
290.784815,19.142581,191.425808,9781.858789
290.787333,19.142581,191.425808,9839.286531
290.789850,19.142581,153.140646,9820.143950
290.792368,19.142581,133.998066,9858.429112
290.794885,38.285162,133.998066,9839.286531
290.797403,76.570323,210.568389,9820.143950
290.799921,19.142581,191.425808,9801.001370
290.802438,76.570323,114.855485,9839.286531
290.804956,76.570323,191.425808,9877.571693
290.807473,114.855485,210.568389,9820.143950
290.809991,76.570323,172.283227,9762.716208
290.812509,19.142581,172.283227,9839.286531
290.815026,19.142581,153.140646,9973.284597
290.817544,76.570323,229.710970,9877.571693
290.820061,95.712904,210.568389,9820.143950
290.822579,19.142581,153.140646,9781.858789
290.825097,153.140646,114.855485,9781.858789
290.827614,76.570323,114.855485,9839.286531
290.830132,95.712904,114.855485,9896.714274
290.832649,38.285162,133.998066,9839.286531
290.835167,57.427742,133.998066,9934.999435
290.837685,19.142581,172.283227,9781.858789
290.840202,19.142581,248.853550,9858.429112
290.842720,95.712904,210.568389,9762.716208
290.845237,57.427742,95.712904,9858.429112
290.847755,114.855485,95.712904,9839.286531
290.850273,114.855485,229.710970,9877.571693
290.852790,38.285162,133.998066,9877.571693
290.855308,76.570323,210.568389,9877.571693
290.857825,114.855485,210.568389,9839.286531
290.860343,114.855485,114.855485,9896.714274
290.862861,95.712904,95.712904,9896.714274
290.865378,114.855485,210.568389,9801.001370
290.867896,114.855485,114.855485,9839.286531
290.870413,19.142581,153.140646,9820.143950
290.872931,95.712904,191.425808,9762.716208
290.875449,114.855485,133.998066,9934.999435
290.877966,57.427742,95.712904,9801.001370
290.880484,19.142581,133.998066,9858.429112
290.883001,57.427742,267.996131,9877.571693
290.885519,38.285162,229.710970,9915.856854
290.888043,76.570323,229.710970,9839.286531
290.890567,153.140646,76.570323,9801.001370
290.893092,114.855485,172.283227,9820.143950
290.895616,38.285162,76.570323,9839.286531
290.898140,95.712904,172.283227,9781.858789
290.900665,114.855485,172.283227,9858.429112
290.903189,114.855485,210.568389,9877.571693
290.905713,114.855485,210.568389,9820.143950
290.908237,57.427742,114.855485,9801.001370
290.910762,57.427742,153.140646,9877.571693
290.913286,57.427742,95.712904,9801.001370
290.915810,76.570323,153.140646,9877.571693
290.918334,76.570323,229.710970,9877.571693
290.920859,191.425808,133.998066,9801.001370
290.923383,114.855485,133.998066,9762.716208
290.925907,19.142581,133.998066,9839.286531
290.928431,19.142581,172.283227,9896.714274
290.930956,57.427742,153.140646,9858.429112
290.933480,114.855485,172.283227,9877.571693
290.936004,38.285162,172.283227,9896.714274
290.938529,76.570323,153.140646,9839.286531
290.941053,95.712904,153.140646,9934.999435
290.943577,76.570323,210.568389,9877.571693
290.946101,76.570323,114.855485,9820.143950
290.948626,95.712904,172.283227,9762.716208
290.951150,76.570323,153.140646,9762.716208
290.953674,76.570323,153.140646,9839.286531
290.956198,114.855485,172.283227,9839.286531
290.958723,76.570323,172.283227,9877.571693
290.961247,38.285162,76.570323,9858.429112
290.963771,76.570323,114.855485,9839.286531
290.966296,114.855485,191.425808,9877.571693
290.968820,19.142581,191.425808,9839.286531
290.971344,19.142581,191.425808,9801.001370
290.973868,76.570323,229.710970,9877.571693
290.976393,76.570323,210.568389,9820.143950
290.978917,76.570323,114.855485,9820.143950
290.981441,57.427742,95.712904,9896.714274
290.983965,76.570323,114.855485,9877.571693
290.986490,95.712904,210.568389,9762.716208
290.989020,38.285162,133.998066,9858.429112
290.991550,76.570323,114.855485,9877.571693
290.994079,133.998066,172.283227,9839.286531
290.996609,76.570323,172.283227,9877.571693
290.999139,95.712904,114.855485,9801.001370
291.001669,95.712904,210.568389,9877.571693
291.004199,38.285162,133.998066,9820.143950
291.006729,19.142581,153.140646,9781.858789
291.009259,38.285162,133.998066,9858.429112
291.011789,95.712904,114.855485,9877.571693
291.014319,57.427742,191.425808,9877.571693
291.016849,76.570323,210.568389,9877.571693
291.019379,38.285162,191.425808,9762.716208
291.021909,-19.142581,229.710970,9781.858789
291.024439,76.570323,210.568389,9820.143950
291.026968,133.998066,114.855485,9877.571693
291.029498,57.427742,114.855485,9820.143950
291.032028,57.427742,114.855485,9896.714274
291.034558,76.570323,191.425808,9877.571693
291.037088,133.998066,210.568389,9877.571693
291.039618,38.285162,76.570323,9839.286531
291.042148,76.570323,133.998066,9915.856854
291.044678,38.285162,76.570323,9762.716208
291.047208,133.998066,172.283227,9839.286531
