#time,accel_x,accel_y,accel_z
303.003596,95.712904,210.568389,9877.571693
303.006003,133.998066,114.855485,9839.286531
303.008409,76.570323,229.710970,9839.286531
303.010816,76.570323,229.710970,9858.429112
303.013223,38.285162,248.853550,9858.429112
303.015630,57.427742,191.425808,9877.571693
303.018037,-19.142581,76.570323,9839.286531
303.020444,114.855485,172.283227,9877.571693
303.022850,57.427742,95.712904,9858.429112
303.025257,95.712904,114.855485,9877.571693
303.027664,19.142581,114.855485,9934.999435
303.030071,38.285162,133.998066,9801.001370
303.032478,95.712904,267.996131,9896.714274
303.034885,76.570323,114.855485,9801.001370
303.037292,76.570323,38.285162,9686.145885
303.039698,38.285162,-38.285162,9858.429112
303.042105,76.570323,0.000000,9820.143950
303.044512,133.998066,172.283227,9762.716208
303.046919,76.570323,267.996131,9915.856854
303.049326,38.285162,325.423874,9877.571693
303.051733,95.712904,191.425808,9973.284597
303.054139,19.142581,95.712904,9934.999435
303.056546,133.998066,172.283227,9877.571693
303.058953,133.998066,114.855485,9858.429112
303.061360,57.427742,133.998066,9877.571693
303.063767,153.140646,210.568389,9973.284597
303.066174,57.427742,191.425808,9934.999435
303.068794,-0.000000,191.425808,9820.143950
303.071414,76.570323,210.568389,9762.716208
303.074034,57.427742,57.427742,9858.429112
303.076653,76.570323,114.855485,9762.716208
303.079273,76.570323,172.283227,9762.716208
303.081893,95.712904,114.855485,9762.716208
303.084513,38.285162,306.281293,9781.858789
303.087133,38.285162,267.996131,9762.716208
303.089753,19.142581,191.425808,9801.001370
303.092373,95.712904,172.283227,9877.571693
303.094993,57.427742,114.855485,9915.856854
303.097613,38.285162,172.283227,9973.284597
303.100233,-0.000000,191.425808,9896.714274
303.102853,57.427742,229.710970,9896.714274
303.105473,95.712904,287.138712,9877.571693
303.108093,114.855485,191.425808,9934.999435
303.110713,95.712904,248.853550,9934.999435
303.113333,57.427742,210.568389,9877.571693
303.115953,76.570323,172.283227,9858.429112
303.118573,76.570323,172.283227,9858.429112
303.121193,76.570323,210.568389,9762.716208
303.123813,114.855485,133.998066,9724.431046
303.126433,95.712904,95.712904,9839.286531
303.129053,76.570323,191.425808,9762.716208
303.131673,76.570323,210.568389,9877.571693
303.134292,76.570323,114.855485,9877.571693
303.136912,76.570323,191.425808,9762.716208
303.139532,19.142581,172.283227,9896.714274
303.142152,19.142581,153.140646,9839.286531
303.144772,19.142581,210.568389,9781.858789
303.147392,76.570323,210.568389,9877.571693
303.150012,114.855485,210.568389,9839.286531
303.152632,95.712904,287.138712,9839.286531
303.155252,76.570323,153.140646,9877.571693
303.157872,76.570323,210.568389,9762.716208
303.160492,76.570323,191.425808,9762.716208
303.163112,57.427742,153.140646,9973.284597
303.165732,57.427742,248.853550,9858.429112
303.168352,133.998066,210.568389,9839.286531
303.170972,95.712904,229.710970,9877.571693
303.173642,114.855485,172.283227,9877.571693
303.176312,76.570323,172.283227,9858.429112
303.178981,57.427742,133.998066,9934.999435
303.181651,76.570323,114.855485,9877.571693
303.184321,114.855485,153.140646,9762.716208
303.186991,57.427742,114.855485,9839.286531
303.189661,19.142581,172.283227,9820.143950
303.192331,38.285162,153.140646,9762.716208
303.195001,57.427742,114.855485,9781.858789
303.197671,76.570323,114.855485,9877.571693
303.200340,57.427742,95.712904,9801.001370
303.203010,114.855485,95.712904,9858.429112
303.205680,-19.142581,133.998066,9801.001370
303.208350,57.427742,95.712904,9858.429112
303.211020,95.712904,191.425808,9858.429112
303.213690,114.855485,210.568389,9762.716208
303.216360,153.140646,210.568389,9934.999435
303.219030,76.570323,76.570323,9973.284597
303.221700,57.427742,95.712904,9858.429112
303.224369,57.427742,133.998066,9954.142016
303.227039,19.142581,95.712904,9877.571693
303.229709,19.142581,248.853550,9801.001370
303.232379,114.855485,306.281293,9781.858789
303.235049,57.427742,287.138712,9820.143950
303.237719,57.427742,114.855485,9781.858789
303.240389,57.427742,95.712904,9839.286531
303.243059,153.140646,114.855485,9801.001370
303.245728,76.570323,191.425808,9705.288466
303.248398,38.285162,114.855485,9724.431046
303.251068,57.427742,229.710970,9781.858789
303.253738,19.142581,133.998066,9839.286531
303.256408,57.427742,191.425808,9877.571693
303.259078,19.142581,191.425808,9858.429112
303.261748,38.285162,172.283227,9915.856854
303.264418,133.998066,114.855485,9858.429112
303.267087,133.998066,191.425808,9934.999435
303.269757,57.427742,95.712904,9839.286531
303.272427,57.427742,210.568389,9954.142016
303.275097,38.285162,191.425808,9896.714274
303.277767,57.427742,287.138712,9858.429112
303.280433,57.427742,191.425808,9934.999435
303.283099,114.855485,76.570323,9896.714274
303.285764,19.142581,153.140646,9781.858789
303.288430,19.142581,191.425808,9781.858789
303.291096,76.570323,172.283227,9801.001370
303.293762,57.427742,229.710970,9781.858789
303.296428,57.427742,191.425808,9934.999435
303.299094,57.427742,133.998066,9934.999435
303.301760,-19.142581,172.283227,9839.286531
303.304426,57.427742,95.712904,9896.714274
303.307091,57.427742,114.855485,9934.999435
303.309757,76.570323,172.283227,9801.001370
303.312423,114.855485,229.710970,9820.143950
303.315089,76.570323,172.283227,9820.143950
303.317755,76.570323,210.568389,9858.429112
303.320421,95.712904,114.855485,9839.286531
303.323087,114.855485,210.568389,9858.429112
303.325752,76.570323,229.710970,9877.571693
303.328418,38.285162,114.855485,9915.856854
303.331084,95.712904,114.855485,9877.571693
303.333750,76.570323,191.425808,9877.571693
303.336416,76.570323,172.283227,9839.286531
303.339082,57.427742,287.138712,9820.143950
303.341748,114.855485,172.283227,9934.999435
303.344413,57.427742,210.568389,9934.999435
303.347079,76.570323,172.283227,9858.429112
303.349745,76.570323,153.140646,9820.143950
303.352411,114.855485,114.855485,9858.429112
303.355077,38.285162,133.998066,9820.143950
303.357743,38.285162,76.570323,9762.716208
303.360409,76.570323,229.710970,9877.571693
303.363074,-0.000000,153.140646,9839.286531
303.365740,19.142581,191.425808,9801.001370
303.368406,114.855485,229.710970,9762.716208
303.371072,57.427742,172.283227,9839.286531
303.373738,19.142581,133.998066,9839.286531
303.376404,57.427742,133.998066,9934.999435
303.379070,76.570323,153.140646,9877.571693
303.381736,76.570323,191.425808,9762.716208
303.384401,95.712904,114.855485,9839.286531
303.387048,57.427742,172.283227,9934.999435
303.389694,114.855485,229.710970,9858.429112
303.392341,19.142581,114.855485,9915.856854
303.394987,76.570323,210.568389,9839.286531
303.397634,-0.000000,172.283227,9896.714274
303.400280,19.142581,172.283227,9801.001370
303.402927,95.712904,210.568389,9877.571693
303.405573,76.570323,172.283227,9839.286531
303.408220,114.855485,114.855485,9820.143950
303.410866,57.427742,287.138712,9801.001370
303.413513,19.142581,210.568389,9820.143950
303.416159,76.570323,172.283227,9762.716208
303.418805,57.427742,95.712904,9839.286531
303.421452,76.570323,114.855485,9762.716208
303.424098,19.142581,114.855485,9820.143950
303.426745,76.570323,229.710970,9839.286531
303.429391,57.427742,95.712904,9820.143950
303.432038,57.427742,153.140646,9877.571693
303.434684,76.570323,114.855485,9877.571693
303.437331,-0.000000,133.998066,9762.716208
303.439977,57.427742,153.140646,9934.999435
303.442624,114.855485,191.425808,9973.284597
303.445270,19.142581,153.140646,9820.143950
303.447917,133.998066,172.283227,9877.571693
303.450563,133.998066,172.283227,9877.571693
303.453210,114.855485,191.425808,9820.143950
303.455856,57.427742,133.998066,9858.429112
303.458503,76.570323,172.283227,9820.143950
303.461149,76.570323,172.283227,9743.573627
303.463795,19.142581,133.998066,9896.714274
303.466442,95.712904,191.425808,9934.999435
303.469088,57.427742,133.998066,9743.573627
303.471735,95.712904,95.712904,9820.143950
303.474381,95.712904,210.568389,9877.571693
303.477028,19.142581,191.425808,9801.001370
303.479674,19.142581,248.853550,9858.429112
303.482321,76.570323,229.710970,9801.001370
303.484967,57.427742,114.855485,9801.001370
303.487614,76.570323,172.283227,9858.429112
303.490260,76.570323,172.283227,9839.286531
303.492884,76.570323,114.855485,9762.716208
303.495507,76.570323,210.568389,9877.571693
303.498130,57.427742,229.710970,9896.714274
303.500754,38.285162,248.853550,9820.143950
303.503377,153.140646,229.710970,9896.714274
303.506000,76.570323,210.568389,9858.429112
303.508624,114.855485,172.283227,9858.429112
303.511247,153.140646,287.138712,9896.714274
303.513870,76.570323,172.283227,9820.143950
303.516494,57.427742,57.427742,9858.429112
303.519117,114.855485,114.855485,9896.714274
303.521741,19.142581,172.283227,9877.571693
303.524364,19.142581,153.140646,9820.143950
303.526987,19.142581,248.853550,9801.001370
303.529611,57.427742,153.140646,9877.571693
303.532234,76.570323,210.568389,9820.143950
303.534857,114.855485,114.855485,9877.571693
303.537481,76.570323,153.140646,9858.429112
303.540104,19.142581,172.283227,9858.429112
303.542728,76.570323,114.855485,9877.571693
303.545351,114.855485,210.568389,9801.001370
303.547974,76.570323,153.140646,9839.286531
303.550598,76.570323,114.855485,9858.429112
303.553221,76.570323,210.568389,9839.286531
303.555844,76.570323,191.425808,9877.571693
303.558468,19.142581,153.140646,9896.714274
303.561091,133.998066,153.140646,9858.429112
303.563714,76.570323,133.998066,9915.856854
303.566338,76.570323,153.140646,9877.571693
303.568961,76.570323,248.853550,9915.856854
303.571585,38.285162,210.568389,9915.856854
303.574208,133.998066,229.710970,9858.429112
303.576831,76.570323,210.568389,9839.286531
303.579455,76.570323,172.283227,9839.286531
303.582078,57.427742,95.712904,9801.001370
303.584701,57.427742,95.712904,9801.001370
303.587325,19.142581,172.283227,9877.571693
303.589948,-38.285162,229.710970,9781.858789
303.592571,19.142581,210.568389,9762.716208
303.595195,114.855485,210.568389,9762.716208
303.597795,133.998066,153.140646,9781.858789
303.600394,19.142581,133.998066,9801.001370
303.602994,57.427742,114.855485,9858.429112
303.605594,38.285162,114.855485,9915.856854
303.608193,19.142581,153.140646,9896.714274
303.610793,76.570323,172.283227,9877.571693
303.613393,153.140646,153.140646,9877.571693
303.615993,76.570323,153.140646,9820.143950
303.618592,76.570323,191.425808,9858.429112
303.621192,57.427742,248.853550,9762.716208
303.623792,57.427742,153.140646,9762.716208
303.626392,76.570323,114.855485,9820.143950
303.628991,19.142581,133.998066,9896.714274
303.631591,19.142581,133.998066,9896.714274
303.634191,57.427742,191.425808,9934.999435
303.636790,95.712904,229.710970,9877.571693
303.639390,19.142581,153.140646,9820.143950
303.641990,76.570323,114.855485,9820.143950
303.644590,76.570323,172.283227,9820.143950
303.647189,76.570323,172.283227,9877.571693
303.649789,57.427742,76.570323,9801.001370
303.652389,114.855485,210.568389,9820.143950
303.654988,76.570323,210.568389,9858.429112
303.657588,76.570323,210.568389,9801.001370
303.660188,57.427742,114.855485,9896.714274
303.662788,57.427742,133.998066,9934.999435
303.665387,-19.142581,114.855485,9896.714274
303.667987,19.142581,210.568389,9781.858789
303.670587,114.855485,229.710970,9820.143950
303.673187,114.855485,172.283227,9877.571693
303.675786,57.427742,95.712904,9820.143950
303.678386,19.142581,153.140646,9915.856854
303.680986,-57.427742,248.853550,9820.143950
303.683585,95.712904,191.425808,9801.001370
303.686185,95.712904,114.855485,9801.001370
303.688785,114.855485,114.855485,9858.429112
303.691385,76.570323,191.425808,9877.571693
303.693984,114.855485,76.570323,9896.714274
303.696584,19.142581,172.283227,9820.143950
303.699184,76.570323,191.425808,9877.571693
303.701761,76.570323,114.855485,9820.143950
303.704340,114.855485,172.283227,9762.716208
303.706919,19.142581,114.855485,9820.143950
303.709498,76.570323,191.425808,9877.571693
303.712076,57.427742,287.138712,9896.714274
303.714655,76.570323,210.568389,9762.716208
303.717234,76.570323,191.425808,9896.714274
303.719813,38.285162,38.285162,9820.143950
303.722392,76.570323,133.998066,9915.856854
303.724970,114.855485,95.712904,9896.714274
303.727549,57.427742,287.138712,9858.429112
303.730128,153.140646,325.423874,9934.999435
303.732707,-19.142581,248.853550,9839.286531
303.735286,19.142581,95.712904,9743.573627
303.737864,76.570323,76.570323,9839.286531
303.740443,57.427742,95.712904,9896.714274
303.743022,133.998066,172.283227,9801.001370
303.745601,19.142581,210.568389,9801.001370
303.748180,76.570323,287.138712,9839.286531
303.750759,76.570323,210.568389,9762.716208
303.753337,133.998066,153.140646,9896.714274
303.755916,76.570323,114.855485,9839.286531
303.758495,19.142581,133.998066,9801.001370
303.761074,19.142581,191.425808,9896.714274
303.763653,95.712904,191.425808,9877.571693
303.766231,57.427742,95.712904,9781.858789
303.768810,76.570323,172.283227,9839.286531
303.771389,57.427742,191.425808,9934.999435
303.773968,76.570323,229.710970,9762.716208
303.776547,57.427742,153.140646,9877.571693
303.779126,38.285162,172.283227,9915.856854
303.781704,95.712904,114.855485,9839.286531
303.784283,38.285162,76.570323,9877.571693
303.786862,76.570323,153.140646,9877.571693
303.789441,114.855485,210.568389,9820.143950
303.792020,57.427742,114.855485,9896.714274
303.794598,76.570323,229.710970,9839.286531
303.797177,-0.000000,191.425808,9858.429112
303.799756,76.570323,172.283227,9820.143950
303.802335,19.142581,133.998066,9801.001370
303.804900,114.855485,114.855485,9801.001370
303.807465,76.570323,114.855485,9762.716208
303.810030,38.285162,133.998066,9820.143950
303.812595,114.855485,153.140646,9934.999435
303.815160,76.570323,191.425808,9858.429112
303.817725,19.142581,172.283227,9896.714274
303.820291,76.570323,172.283227,9820.143950
303.822856,57.427742,172.283227,9858.429112
303.825421,57.427742,172.283227,9858.429112
303.827986,95.712904,114.855485,9781.858789
303.830551,114.855485,191.425808,9934.999435
303.833116,76.570323,210.568389,9820.143950
303.835681,57.427742,248.853550,9954.142016
303.838246,76.570323,172.283227,9877.571693
303.840811,114.855485,191.425808,9877.571693
303.843377,95.712904,210.568389,9801.001370
303.845942,38.285162,76.570323,9877.571693
303.848507,95.712904,153.140646,9743.573627
303.851072,76.570323,172.283227,9820.143950
303.853637,57.427742,153.140646,9877.571693
303.856202,114.855485,172.283227,9762.716208
303.858767,-19.142581,191.425808,9839.286531
303.861332,57.427742,114.855485,9820.143950
303.863897,133.998066,172.283227,9858.429112
303.866463,76.570323,210.568389,9877.571693
303.869028,76.570323,114.855485,9877.571693
303.871593,57.427742,133.998066,9743.573627
303.874158,133.998066,114.855485,9820.143950
303.876723,76.570323,114.855485,9877.571693
303.879288,19.142581,133.998066,9896.714274
303.881853,95.712904,172.283227,9801.001370
303.884418,57.427742,229.710970,9801.001370
303.886983,57.427742,287.138712,9820.143950
303.889548,95.712904,172.283227,9877.571693
303.892114,57.427742,114.855485,9896.714274
303.894679,38.285162,76.570323,9820.143950
303.897244,114.855485,229.710970,9858.429112
303.899809,-19.142581,210.568389,9915.856854
303.902374,114.855485,191.425808,9877.571693
303.904939,76.570323,153.140646,9839.286531
303.907492,76.570323,210.568389,9877.571693
303.910045,57.427742,114.855485,9839.286531
303.912598,95.712904,114.855485,9877.571693
303.915151,57.427742,114.855485,9801.001370
303.917703,114.855485,172.283227,9839.286531
303.920256,114.855485,95.712904,9839.286531
303.922809,95.712904,95.712904,9781.858789
303.925362,114.855485,229.710970,9820.143950
303.927915,57.427742,248.853550,9934.999435
303.930468,19.142581,153.140646,9839.286531
303.933021,38.285162,172.283227,9896.714274
303.935573,57.427742,95.712904,9839.286531
303.938126,153.140646,95.712904,9839.286531
303.940679,114.855485,229.710970,9839.286531
303.943232,76.570323,229.710970,9877.571693
303.945785,114.855485,229.710970,9801.001370
303.948338,76.570323,114.855485,9877.571693
303.950891,95.712904,133.998066,9934.999435
303.953443,95.712904,229.710970,9877.571693
303.955996,19.142581,172.283227,9877.571693
303.958549,19.142581,287.138712,9877.571693
303.961102,38.285162,76.570323,9858.429112
303.963655,153.140646,95.712904,9896.714274
303.966208,19.142581,153.140646,9839.286531
303.968761,57.427742,248.853550,9743.573627
303.971314,76.570323,172.283227,9820.143950
303.973866,95.712904,210.568389,9839.286531
303.976419,76.570323,172.283227,9839.286531
303.978972,114.855485,172.283227,9858.429112
303.981525,76.570323,172.283227,9839.286531
303.984078,57.427742,95.712904,9820.143950
303.986631,-0.000000,248.853550,9858.429112
303.989184,19.142581,153.140646,9896.714274
303.991736,57.427742,95.712904,9801.001370
303.994289,153.140646,153.140646,9877.571693
303.996842,153.140646,248.853550,9934.999435
303.999395,19.142581,153.140646,9781.858789
304.001948,114.855485,210.568389,9877.571693
304.004501,38.285162,210.568389,9839.286531
304.007054,19.142581,172.283227,9858.429112
304.009595,114.855485,114.855485,9820.143950
304.012137,95.712904,95.712904,9801.001370
304.014679,-19.142581,133.998066,9896.714274
304.017221,19.142581,172.283227,9896.714274
304.019763,76.570323,210.568389,9858.429112
304.022304,19.142581,191.425808,9781.858789
304.024846,76.570323,210.568389,9858.429112
304.027388,76.570323,172.283227,9820.143950
304.029930,114.855485,172.283227,9839.286531
304.032472,95.712904,153.140646,9858.429112
304.035014,57.427742,95.712904,9781.858789
304.037555,38.285162,133.998066,9820.143950
304.040097,-0.000000,229.710970,9781.858789
304.042639,57.427742,191.425808,9934.999435
304.045181,114.855485,210.568389,9877.571693
304.047723,19.142581,191.425808,9896.714274
304.050265,95.712904,114.855485,9762.716208
304.052806,76.570323,114.855485,9877.571693
304.055348,76.570323,114.855485,9877.571693
304.057890,95.712904,95.712904,9896.714274
304.060432,76.570323,210.568389,9839.286531
304.062974,19.142581,191.425808,9839.286531
304.065515,19.142581,133.998066,9801.001370
304.068057,76.570323,210.568389,9858.429112
304.070599,95.712904,210.568389,9820.143950
304.073141,57.427742,95.712904,9839.286531
304.075683,76.570323,133.998066,9896.714274
304.078225,19.142581,133.998066,9896.714274
304.080766,19.142581,153.140646,9839.286531
304.083308,57.427742,133.998066,9934.999435
304.085850,76.570323,210.568389,9839.286531
304.088392,114.855485,229.710970,9820.143950
304.090934,114.855485,210.568389,9820.143950
304.093475,133.998066,38.285162,9915.856854
304.096017,76.570323,114.855485,9877.571693
304.098559,57.427742,57.427742,9858.429112
304.101101,57.427742,114.855485,9839.286531
304.103643,38.285162,133.998066,9877.571693
304.106185,76.570323,210.568389,9858.429112
304.108726,76.570323,172.283227,9801.001370
304.111259,19.142581,191.425808,9801.001370
304.113792,95.712904,172.283227,9839.286531
304.116324,76.570323,191.425808,9762.716208
304.118857,76.570323,172.283227,9820.143950
304.121390,133.998066,114.855485,9858.429112
304.123923,19.142581,133.998066,9762.716208
304.126455,19.142581,191.425808,9839.286531
304.128988,38.285162,114.855485,9915.856854
304.131521,19.142581,153.140646,9820.143950
304.134053,57.427742,95.712904,9801.001370
304.136586,133.998066,172.283227,9762.716208
304.139119,76.570323,172.283227,9762.716208
304.141651,114.855485,172.283227,9820.143950
304.144184,19.142581,210.568389,9877.571693
304.146717,76.570323,114.855485,9801.001370
304.149250,95.712904,191.425808,9820.143950
304.151782,95.712904,172.283227,9877.571693
304.154315,19.142581,191.425808,9839.286531
304.156848,76.570323,172.283227,9858.429112
304.159380,38.285162,267.996131,9820.143950
304.161913,133.998066,210.568389,9762.716208
304.164446,133.998066,210.568389,9839.286531
304.166978,114.855485,133.998066,9877.571693
304.169511,38.285162,76.570323,9801.001370
304.172044,57.427742,153.140646,9877.571693
304.174577,76.570323,191.425808,9820.143950
304.177109,76.570323,153.140646,9801.001370
304.179642,76.570323,229.710970,9858.429112
304.182175,95.712904,172.283227,9877.571693
304.184707,133.998066,153.140646,9801.001370
304.187240,172.283227,172.283227,9781.858789
304.189773,114.855485,191.425808,9934.999435
304.192306,76.570323,114.855485,9858.429112
304.194838,114.855485,153.140646,9877.571693
304.197371,76.570323,210.568389,9858.429112
304.199904,38.285162,114.855485,9896.714274
304.202436,191.425808,153.140646,9839.286531
304.204969,19.142581,172.283227,9801.001370
304.207502,57.427742,191.425808,9743.573627
304.210034,95.712904,114.855485,9839.286531
304.212559,19.142581,172.283227,9839.286531
304.215084,76.570323,172.283227,9877.571693
304.217609,95.712904,153.140646,9934.999435
304.220134,19.142581,191.425808,9896.714274
304.222659,95.712904,248.853550,9934.999435
304.225183,114.855485,191.425808,9954.142016
304.227708,76.570323,153.140646,9762.716208
304.230233,95.712904,210.568389,9820.143950
304.232758,114.855485,114.855485,9781.858789
304.235283,19.142581,191.425808,9858.429112
304.237807,95.712904,287.138712,9858.429112
304.240332,76.570323,210.568389,9877.571693
304.242857,114.855485,287.138712,9820.143950
304.245382,76.570323,229.710970,9820.143950
304.247907,19.142581,153.140646,9781.858789
304.250432,76.570323,172.283227,9858.429112
304.252956,76.570323,210.568389,9858.429112
304.255481,-0.000000,191.425808,9896.714274
304.258006,-19.142581,172.283227,9801.001370
304.260531,95.712904,114.855485,9858.429112
304.263056,76.570323,191.425808,9877.571693
304.265580,133.998066,172.283227,9820.143950
304.268105,19.142581,191.425808,9896.714274
304.270630,114.855485,172.283227,9877.571693
304.273155,76.570323,172.283227,9762.716208
304.275680,76.570323,133.998066,9915.856854
304.278205,95.712904,114.855485,9858.429112
304.280729,76.570323,114.855485,9820.143950
304.283254,19.142581,191.425808,9801.001370
304.285779,57.427742,287.138712,9896.714274
304.288304,57.427742,287.138712,9781.858789
304.290829,19.142581,153.140646,9801.001370
304.293354,19.142581,153.140646,9839.286531
304.295878,19.142581,114.855485,9877.571693
304.298403,19.142581,133.998066,9839.286531
304.300928,57.427742,153.140646,9743.573627
304.303453,19.142581,248.853550,9915.856854
304.305978,57.427742,153.140646,9934.999435
304.308502,19.142581,153.140646,9839.286531
304.311027,95.712904,210.568389,9801.001370
304.313463,76.570323,153.140646,9858.429112
304.315898,76.570323,229.710970,9820.143950
304.318334,133.998066,172.283227,9820.143950
304.320769,133.998066,114.855485,9877.571693
304.323205,19.142581,133.998066,9839.286531
304.325640,95.712904,172.283227,9877.571693
304.328075,38.285162,229.710970,9915.856854
304.330511,76.570323,210.568389,9762.716208
304.332946,76.570323,172.283227,9762.716208
304.335382,57.427742,95.712904,9896.714274
304.337817,76.570323,153.140646,9858.429112
304.340253,133.998066,210.568389,9820.143950
304.342688,19.142581,153.140646,9839.286531
304.345124,114.855485,114.855485,9820.143950
304.347559,153.140646,95.712904,9858.429112
304.349995,95.712904,210.568389,9801.001370
304.352430,76.570323,153.140646,9801.001370
304.354865,76.570323,210.568389,9858.429112
304.357301,76.570323,172.283227,9801.001370
304.359736,95.712904,114.855485,9781.858789
304.362172,38.285162,172.283227,9915.856854
304.364607,57.427742,95.712904,9839.286531
304.367043,38.285162,95.712904,9801.001370
304.369478,38.285162,210.568389,9973.284597
304.371914,95.712904,172.283227,9820.143950
304.374349,-0.000000,248.853550,9801.001370
304.376784,57.427742,191.425808,9934.999435
304.379220,153.140646,153.140646,9934.999435
304.381655,114.855485,95.712904,9858.429112
304.384091,95.712904,114.855485,9858.429112
304.386526,133.998066,153.140646,9877.571693
304.388962,114.855485,153.140646,9858.429112
304.391397,57.427742,191.425808,9934.999435
304.393833,19.142581,153.140646,9858.429112
304.396268,-57.427742,210.568389,9839.286531
304.398704,95.712904,191.425808,9858.429112
304.401139,76.570323,210.568389,9877.571693
304.403574,19.142581,133.998066,9801.001370
304.406010,191.425808,153.140646,9839.286531
304.408445,133.998066,114.855485,9839.286531
304.410823,-19.142581,191.425808,9858.429112
304.413202,19.142581,153.140646,9896.714274
304.415580,19.142581,248.853550,9839.286531
304.417958,-19.142581,191.425808,9781.858789
304.420336,57.427742,133.998066,9934.999435
304.422714,19.142581,153.140646,9839.286531
304.425092,19.142581,133.998066,9801.001370
304.427470,76.570323,114.855485,9820.143950
304.429849,76.570323,153.140646,9839.286531
304.432227,95.712904,172.283227,9934.999435
304.434605,57.427742,210.568389,9934.999435
304.436983,57.427742,191.425808,9934.999435
304.439361,19.142581,248.853550,9801.001370
304.441739,114.855485,153.140646,9934.999435
304.444117,19.142581,172.283227,9839.286531
304.446496,76.570323,172.283227,9762.716208
304.448874,76.570323,114.855485,9839.286531
304.451252,76.570323,191.425808,9820.143950
304.453630,19.142581,153.140646,9896.714274
304.456008,57.427742,191.425808,9934.999435
304.458386,19.142581,133.998066,9858.429112
304.460764,114.855485,114.855485,9820.143950
304.463143,114.855485,210.568389,9839.286531
304.465521,133.998066,210.568389,9762.716208
304.467899,76.570323,76.570323,9915.856854
304.470277,76.570323,133.998066,9915.856854
304.472655,-0.000000,172.283227,9896.714274
304.475033,76.570323,267.996131,9915.856854
304.477411,19.142581,248.853550,9839.286531
304.479789,76.570323,210.568389,9877.571693
304.482168,19.142581,191.425808,9801.001370
304.484546,76.570323,172.283227,9839.286531
304.486924,76.570323,172.283227,9839.286531
304.489302,133.998066,172.283227,9839.286531
304.491680,76.570323,191.425808,9801.001370
304.494058,57.427742,153.140646,9877.571693
304.496436,57.427742,210.568389,9839.286531
304.498815,38.285162,76.570323,9877.571693
304.501193,19.142581,172.283227,9858.429112
304.503571,19.142581,153.140646,9839.286531
304.505988,38.285162,133.998066,9801.001370
304.508405,57.427742,153.140646,9934.999435
304.510821,19.142581,191.425808,9858.429112
304.513238,38.285162,172.283227,9839.286531
304.515655,76.570323,153.140646,9839.286531
304.518072,38.285162,114.855485,9896.714274
304.520489,76.570323,210.568389,9820.143950
304.522905,19.142581,191.425808,9820.143950
304.525322,114.855485,153.140646,9820.143950
304.527739,76.570323,114.855485,9762.716208
304.530156,95.712904,172.283227,9934.999435
304.532573,38.285162,76.570323,9820.143950
304.534990,76.570323,153.140646,9858.429112
304.537406,19.142581,210.568389,9801.001370
304.539823,76.570323,248.853550,9877.571693
304.542240,38.285162,172.283227,9896.714274
304.544657,95.712904,153.140646,9743.573627
304.547074,38.285162,76.570323,9801.001370
304.549491,76.570323,153.140646,9762.716208
304.551907,76.570323,172.283227,9877.571693
304.554324,19.142581,153.140646,9896.714274
304.556741,38.285162,153.140646,9896.714274
304.559158,57.427742,133.998066,9877.571693
304.561575,76.570323,172.283227,9858.429112
304.563992,76.570323,210.568389,9801.001370
304.566408,172.283227,153.140646,9820.143950
304.568825,76.570323,114.855485,9762.716208
304.571242,76.570323,114.855485,9839.286531
304.573659,114.855485,114.855485,9877.571693
304.576076,76.570323,153.140646,9839.286531
304.578492,95.712904,114.855485,9858.429112
304.580909,38.285162,153.140646,9915.856854
304.583326,114.855485,229.710970,9820.143950
304.585743,153.140646,191.425808,9877.571693
304.588160,114.855485,76.570323,9896.714274
304.590577,57.427742,153.140646,9743.573627
304.592993,114.855485,191.425808,9934.999435
304.595410,76.570323,114.855485,9858.429112
304.597827,19.142581,191.425808,9801.001370
304.600244,114.855485,153.140646,9934.999435
304.602690,133.998066,133.998066,9915.856854
304.605136,76.570323,114.855485,9762.716208
304.607582,57.427742,210.568389,9781.858789
304.610028,153.140646,210.568389,9915.856854
304.612474,153.140646,95.712904,9781.858789
304.614920,153.140646,133.998066,9877.571693
304.617366,19.142581,172.283227,9934.999435
304.619812,-38.285162,210.568389,9820.143950
304.622258,114.855485,172.283227,9877.571693
304.624705,114.855485,229.710970,9934.999435
304.627151,114.855485,153.140646,9858.429112
304.629597,76.570323,172.283227,9762.716208
304.632043,76.570323,153.140646,9858.429112
304.634489,19.142581,153.140646,9839.286531
304.636935,114.855485,95.712904,9801.001370
304.639381,95.712904,133.998066,9934.999435
304.641827,19.142581,191.425808,9896.714274
304.644273,38.285162,172.283227,9896.714274
304.646719,38.285162,210.568389,9973.284597
304.649165,76.570323,191.425808,9877.571693
304.651611,114.855485,114.855485,9839.286531
304.654057,76.570323,210.568389,9762.716208
304.656503,114.855485,114.855485,9820.143950
304.658949,114.855485,133.998066,9934.999435
304.661396,57.427742,153.140646,9915.856854
304.663842,76.570323,172.283227,9839.286531
304.666288,19.142581,248.853550,9820.143950
304.668734,76.570323,229.710970,9839.286531
304.671180,19.142581,172.283227,9820.143950
304.673626,114.855485,172.283227,9762.716208
304.676072,95.712904,114.855485,9820.143950
304.678518,19.142581,191.425808,9781.858789
304.680964,76.570323,191.425808,9820.143950
304.683410,38.285162,95.712904,9877.571693
304.685856,114.855485,114.855485,9839.286531
304.688302,76.570323,210.568389,9877.571693
304.690748,95.712904,172.283227,9858.429112
304.693194,95.712904,229.710970,9820.143950
304.695640,76.570323,114.855485,9820.143950
304.698086,57.427742,95.712904,9839.286531
304.700548,114.855485,153.140646,9839.286531
304.703016,38.285162,95.712904,9801.001370
304.705484,95.712904,133.998066,9934.999435
304.707953,76.570323,210.568389,9877.571693
304.710421,76.570323,153.140646,9820.143950
304.712889,114.855485,287.138712,9896.714274
304.715357,19.142581,153.140646,9820.143950
304.717825,19.142581,133.998066,9781.858789
304.720293,76.570323,114.855485,9839.286531
304.722761,38.285162,210.568389,9915.856854
304.725230,19.142581,133.998066,9839.286531
304.727698,38.285162,153.140646,9915.856854
304.730166,57.427742,172.283227,9896.714274
304.732634,76.570323,172.283227,9820.143950
304.735102,114.855485,191.425808,9839.286531
304.737570,133.998066,229.710970,9820.143950
304.740038,57.427742,114.855485,9781.858789
304.742506,76.570323,172.283227,9877.571693
304.744975,19.142581,153.140646,9896.714274
304.747443,57.427742,114.855485,9801.001370
304.749911,76.570323,172.283227,9934.999435
304.752379,19.142581,191.425808,9839.286531
304.754847,38.285162,210.568389,9781.858789
304.757315,76.570323,210.568389,9762.716208
304.759783,76.570323,114.855485,9762.716208
304.762251,-19.142581,133.998066,9820.143950
304.764720,153.140646,191.425808,9934.999435
304.767188,114.855485,172.283227,9877.571693
304.769656,76.570323,172.283227,9781.858789
304.772124,19.142581,248.853550,9839.286531
304.774592,114.855485,210.568389,9877.571693
304.777060,76.570323,153.140646,9820.143950
304.779528,191.425808,191.425808,9801.001370
304.781996,57.427742,287.138712,9801.001370
304.784465,76.570323,210.568389,9762.716208
304.786933,95.712904,153.140646,9934.999435
304.789401,-0.000000,133.998066,9858.429112
304.791869,57.427742,95.712904,9781.858789
304.794337,133.998066,114.855485,9858.429112
304.796805,114.855485,191.425808,9877.571693
304.799290,57.427742,153.140646,9762.716208
304.801775,133.998066,210.568389,9858.429112
304.804260,95.712904,172.283227,9820.143950
304.806745,76.570323,172.283227,9877.571693
304.809230,76.570323,210.568389,9858.429112
304.811714,76.570323,133.998066,9896.714274
304.814199,114.855485,76.570323,9915.856854
304.816684,76.570323,172.283227,9858.429112
304.819169,114.855485,172.283227,9820.143950
304.821654,76.570323,229.710970,9858.429112
304.824139,114.855485,210.568389,9820.143950
304.826624,76.570323,153.140646,9877.571693
304.829109,57.427742,114.855485,9896.714274
304.831593,76.570323,172.283227,9839.286531
304.834078,38.285162,114.855485,9839.286531
304.836563,19.142581,133.998066,9839.286531
304.839048,76.570323,114.855485,9762.716208
304.841533,57.427742,287.138712,9839.286531
304.844018,19.142581,191.425808,9801.001370
304.846503,19.142581,191.425808,9820.143950
304.848987,38.285162,76.570323,9762.716208
304.851472,95.712904,95.712904,9896.714274
304.853957,114.855485,95.712904,9801.001370
304.856442,76.570323,114.855485,9820.143950
304.858927,114.855485,229.710970,9877.571693
304.861412,114.855485,287.138712,9896.714274
304.863897,57.427742,229.710970,9896.714274
304.866382,57.427742,95.712904,9896.714274
304.868866,38.285162,133.998066,9839.286531
304.871351,-19.142581,38.285162,9762.716208
304.873836,76.570323,133.998066,9915.856854
304.876321,95.712904,191.425808,9858.429112
304.878806,57.427742,95.712904,9839.286531
304.881291,38.285162,210.568389,9896.714274
304.883776,57.427742,210.568389,9896.714274
304.886260,38.285162,229.710970,9839.286531
304.888745,114.855485,114.855485,9877.571693
304.891230,76.570323,153.140646,9877.571693
304.893715,153.140646,57.427742,9801.001370
304.896200,-19.142581,133.998066,9781.858789
304.898698,19.142581,210.568389,9858.429112
304.901196,19.142581,114.855485,9934.999435
304.903694,57.427742,153.140646,9934.999435
304.906192,114.855485,248.853550,9915.856854
304.908690,76.570323,191.425808,9762.716208
304.911188,114.855485,153.140646,9762.716208
304.913686,57.427742,57.427742,9839.286531
304.916183,95.712904,210.568389,9934.999435
304.918681,76.570323,210.568389,9781.858789
304.921179,114.855485,210.568389,9858.429112
304.923677,57.427742,133.998066,9954.142016
304.926175,76.570323,229.710970,9820.143950
304.928673,76.570323,210.568389,9858.429112
304.931171,114.855485,133.998066,9743.573627
304.933669,95.712904,153.140646,9858.429112
304.936167,19.142581,133.998066,9839.286531
304.938665,76.570323,76.570323,9896.714274
304.941163,172.283227,76.570323,9820.143950
304.943661,19.142581,153.140646,9858.429112
304.946159,19.142581,229.710970,9934.999435
304.948657,114.855485,229.710970,9877.571693
304.951155,133.998066,210.568389,9877.571693
304.953653,76.570323,153.140646,9762.716208
304.956150,19.142581,210.568389,9801.001370
304.958648,38.285162,133.998066,9820.143950
304.961146,57.427742,95.712904,9839.286531
304.963644,76.570323,172.283227,9839.286531
304.966142,57.427742,114.855485,9896.714274
304.968640,76.570323,210.568389,9858.429112
304.971138,38.285162,248.853550,9820.143950
304.973636,57.427742,153.140646,9877.571693
304.976134,19.142581,133.998066,9896.714274
304.978632,76.570323,114.855485,9801.001370
304.981130,76.570323,210.568389,9877.571693
304.983628,19.142581,153.140646,9781.858789
304.986126,19.142581,172.283227,9839.286531
304.988624,114.855485,114.855485,9934.999435
304.991122,76.570323,172.283227,9877.571693
304.993620,76.570323,191.425808,9820.143950
304.996117,114.855485,191.425808,9877.571693
304.998625,76.570323,210.568389,9858.429112
305.001133,57.427742,153.140646,9762.716208
305.003641,133.998066,172.283227,9839.286531
305.006149,153.140646,133.998066,9877.571693
305.008657,19.142581,191.425808,9820.143950
305.011165,95.712904,114.855485,9877.571693
305.013673,95.712904,153.140646,9934.999435
305.016181,114.855485,153.140646,9877.571693
305.018689,76.570323,114.855485,9801.001370
305.021197,19.142581,153.140646,9781.858789
305.023704,19.142581,210.568389,9801.001370
305.026212,95.712904,229.710970,9896.714274
305.028720,38.285162,133.998066,9762.716208
305.031228,19.142581,172.283227,9839.286531
305.033736,76.570323,172.283227,9877.571693
305.036244,57.427742,287.138712,9781.858789
305.038752,153.140646,229.710970,9781.858789
305.041260,191.425808,210.568389,9877.571693
305.043768,76.570323,210.568389,9877.571693
305.046276,19.142581,133.998066,9858.429112
305.048783,153.140646,172.283227,9839.286531
305.051291,153.140646,153.140646,9934.999435
305.053799,76.570323,114.855485,9801.001370
305.056307,19.142581,172.283227,9858.429112
305.058815,133.998066,229.710970,9839.286531
305.061323,76.570323,153.140646,9877.571693
305.063831,19.142581,133.998066,9781.858789
305.066339,57.427742,95.712904,9839.286531
305.068847,95.712904,114.855485,9896.714274
305.071355,76.570323,133.998066,9896.714274
305.073862,76.570323,114.855485,9877.571693
305.076370,76.570323,172.283227,9858.429112
305.078878,114.855485,133.998066,9973.284597
305.081386,57.427742,248.853550,9934.999435
305.083894,19.142581,191.425808,9820.143950
305.086402,95.712904,210.568389,9858.429112
305.088910,57.427742,95.712904,9801.001370
305.091418,76.570323,114.855485,9820.143950
305.093926,114.855485,153.140646,9820.143950
305.096434,114.855485,210.568389,9858.429112
305.098949,38.285162,210.568389,9896.714274
305.101465,114.855485,229.710970,9858.429112
305.103981,19.142581,267.996131,9858.429112
305.106496,38.285162,210.568389,9896.714274
305.109012,38.285162,133.998066,9839.286531
305.111528,57.427742,114.855485,9839.286531
305.114043,38.285162,38.285162,9839.286531
305.116559,76.570323,172.283227,9858.429112
305.119075,57.427742,344.566454,9801.001370
305.121591,57.427742,306.281293,9781.858789
305.124106,114.855485,210.568389,9858.429112
305.126622,19.142581,57.427742,9934.999435
305.129138,19.142581,-95.712904,9858.429112
305.131653,95.712904,95.712904,9839.286531
305.134169,114.855485,191.425808,9762.716208
305.136685,210.568389,153.140646,9724.431046
305.139200,114.855485,287.138712,9781.858789
305.141716,76.570323,153.140646,9877.571693
305.144232,38.285162,76.570323,9877.571693
305.146748,114.855485,114.855485,9877.571693
305.149263,114.855485,114.855485,9877.571693
305.151779,191.425808,172.283227,9858.429112
305.154295,114.855485,114.855485,9839.286531
305.156810,95.712904,172.283227,9858.429112
305.159326,114.855485,153.140646,9934.999435
305.161842,38.285162,153.140646,9915.856854
305.164358,19.142581,133.998066,9839.286531
305.166873,95.712904,172.283227,9858.429112
305.169389,38.285162,76.570323,9762.716208
305.171905,114.855485,38.285162,9858.429112
305.174420,57.427742,95.712904,9781.858789
305.176936,38.285162,153.140646,9724.431046
305.179452,76.570323,287.138712,9762.716208
305.181967,38.285162,267.996131,9877.571693
305.184483,76.570323,114.855485,9877.571693
305.186999,19.142581,133.998066,9896.714274
305.189515,172.283227,0.000000,9896.714274
305.192030,95.712904,95.712904,9781.858789
305.194546,95.712904,191.425808,9762.716208
305.197062,76.570323,191.425808,9877.571693
305.199583,76.570323,229.710970,9877.571693
305.202104,57.427742,210.568389,9915.856854
305.204625,57.427742,229.710970,9896.714274
305.207146,19.142581,153.140646,9839.286531
305.209667,95.712904,133.998066,9915.856854
305.212188,57.427742,57.427742,9896.714274
305.214709,114.855485,114.855485,9801.001370
305.217230,76.570323,191.425808,9820.143950
305.219751,19.142581,248.853550,9858.429112
305.222272,38.285162,172.283227,9896.714274
305.224793,19.142581,191.425808,9877.571693
305.227314,95.712904,133.998066,9934.999435
305.229835,19.142581,133.998066,9801.001370
305.232356,76.570323,114.855485,9839.286531
305.234877,153.140646,95.712904,9839.286531
305.237398,19.142581,114.855485,9839.286531
305.239919,19.142581,210.568389,9839.286531
305.242440,95.712904,114.855485,9839.286531
305.244961,76.570323,210.568389,9820.143950
305.247482,57.427742,248.853550,9877.571693
305.250003,76.570323,210.568389,9820.143950
305.252524,19.142581,248.853550,9839.286531
305.255045,153.140646,210.568389,9934.999435
305.257566,38.285162,114.855485,9896.714274
305.260088,19.142581,191.425808,9858.429112
305.262609,76.570323,229.710970,9820.143950
305.265130,95.712904,172.283227,9896.714274
305.267651,57.427742,191.425808,9934.999435
305.270172,19.142581,248.853550,9896.714274
305.272693,57.427742,133.998066,9934.999435
305.275214,133.998066,172.283227,9820.143950
305.277735,19.142581,191.425808,9801.001370
305.280256,114.855485,172.283227,9858.429112
305.282777,76.570323,172.283227,9820.143950
305.285298,19.142581,191.425808,9781.858789
305.287819,191.425808,153.140646,9839.286531
305.290340,114.855485,229.710970,9877.571693
305.292861,114.855485,191.425808,9839.286531
305.295382,95.712904,172.283227,9877.571693
305.297903,19.142581,153.140646,9781.858789
305.300428,95.712904,114.855485,9820.143950
305.302954,76.570323,172.283227,9839.286531
305.305479,133.998066,114.855485,9839.286531
305.308005,57.427742,153.140646,9877.571693
305.310530,38.285162,210.568389,9934.999435
305.313055,19.142581,191.425808,9896.714274
305.315581,57.427742,153.140646,9934.999435
305.318106,57.427742,95.712904,9896.714274
305.320632,57.427742,95.712904,9839.286531
305.323157,76.570323,172.283227,9762.716208
305.325683,114.855485,210.568389,9858.429112
305.328208,19.142581,133.998066,9801.001370
305.330733,19.142581,191.425808,9896.714274
305.333259,19.142581,153.140646,9896.714274
305.335784,19.142581,191.425808,9896.714274
305.338310,19.142581,133.998066,9839.286531
305.340835,133.998066,114.855485,9762.716208
305.343360,114.855485,95.712904,9896.714274
305.345886,95.712904,76.570323,9915.856854
305.348411,76.570323,153.140646,9858.429112
305.350937,95.712904,210.568389,9820.143950
305.353462,114.855485,191.425808,9858.429112
305.355987,76.570323,210.568389,9877.571693
305.358513,57.427742,133.998066,9934.999435
305.361038,38.285162,210.568389,9915.856854
305.363564,19.142581,172.283227,9820.143950
305.366089,133.998066,153.140646,9877.571693
305.368614,76.570323,191.425808,9858.429112
305.371140,76.570323,210.568389,9762.716208
305.373665,19.142581,172.283227,9896.714274
305.376191,-38.285162,0.000000,9915.856854
305.378716,76.570323,172.283227,9839.286531
305.381241,76.570323,153.140646,9820.143950
305.383767,19.142581,153.140646,9781.858789
305.386292,19.142581,191.425808,9820.143950
305.388818,153.140646,95.712904,9781.858789
305.391343,19.142581,191.425808,9820.143950
305.393869,57.427742,95.712904,9839.286531
305.396394,133.998066,191.425808,9858.429112
305.398919,57.427742,229.710970,9781.858789
305.401447,19.142581,248.853550,9858.429112
305.403975,76.570323,210.568389,9839.286531
305.406503,19.142581,172.283227,9820.143950
305.409031,76.570323,114.855485,9877.571693
305.411559,95.712904,229.710970,9858.429112
305.414087,76.570323,229.710970,9820.143950
305.416615,57.427742,287.138712,9820.143950
305.419143,95.712904,172.283227,9877.571693
305.421671,-0.000000,191.425808,9896.714274
305.424199,114.855485,191.425808,9934.999435
305.426727,57.427742,248.853550,9934.999435
305.429255,76.570323,133.998066,9801.001370
305.431783,76.570323,133.998066,9781.858789
305.434311,114.855485,153.140646,9839.286531
305.436839,-19.142581,172.283227,9781.858789
305.439367,19.142581,114.855485,9934.999435
305.441895,57.427742,153.140646,9877.571693
305.444423,76.570323,210.568389,9762.716208
305.446951,38.285162,210.568389,9839.286531
305.449479,19.142581,191.425808,9839.286531
305.452007,19.142581,191.425808,9820.143950
305.454535,153.140646,153.140646,9762.716208
305.457063,114.855485,172.283227,9762.716208
305.459591,-0.000000,76.570323,9762.716208
305.462119,57.427742,114.855485,9839.286531
305.464647,76.570323,114.855485,9877.571693
305.467175,76.570323,210.568389,9877.571693
305.469703,114.855485,248.853550,9877.571693
305.472231,76.570323,153.140646,9877.571693
305.474759,38.285162,133.998066,9762.716208
305.477287,133.998066,153.140646,9762.716208
305.479815,19.142581,172.283227,9896.714274
305.482343,-19.142581,133.998066,9781.858789
305.484871,76.570323,114.855485,9858.429112
305.487399,57.427742,153.140646,9973.284597
305.489927,38.285162,248.853550,9877.571693
305.492455,38.285162,267.996131,9858.429112
305.494983,19.142581,191.425808,9781.858789
305.497511,95.712904,114.855485,9820.143950
305.500039,172.283227,133.998066,9877.571693
305.502518,153.140646,95.712904,9781.858789
305.504997,114.855485,114.855485,9858.429112
305.507476,57.427742,153.140646,9934.999435
305.509955,76.570323,210.568389,9877.571693
305.512434,38.285162,210.568389,9915.856854
305.514914,76.570323,114.855485,9877.571693
305.517393,19.142581,133.998066,9820.143950
305.519872,114.855485,57.427742,9801.001370
305.522351,76.570323,172.283227,9820.143950
305.524830,76.570323,114.855485,9820.143950
305.527309,114.855485,133.998066,9934.999435
305.529788,57.427742,153.140646,9934.999435
305.532267,57.427742,229.710970,9896.714274
305.534746,19.142581,248.853550,9858.429112
305.537225,19.142581,114.855485,9934.999435
305.539704,57.427742,0.000000,9781.858789
305.542183,57.427742,95.712904,9896.714274
305.544662,95.712904,114.855485,9858.429112
305.547141,133.998066,210.568389,9820.143950
305.549620,133.998066,153.140646,9839.286531
305.552099,57.427742,172.283227,9934.999435
305.554578,-0.000000,191.425808,9896.714274
305.557058,19.142581,95.712904,9954.142016
305.559537,57.427742,76.570323,9839.286531
305.562016,19.142581,191.425808,9781.858789
305.564495,133.998066,153.140646,9858.429112
305.566974,95.712904,153.140646,9839.286531
305.569453,114.855485,172.283227,9858.429112
305.571932,57.427742,57.427742,9896.714274
305.574411,114.855485,229.710970,9877.571693
305.576890,38.285162,267.996131,9801.001370
305.579369,57.427742,287.138712,9801.001370
305.581848,133.998066,153.140646,9934.999435
305.584327,76.570323,153.140646,9858.429112
305.586806,76.570323,153.140646,9877.571693
305.589285,76.570323,114.855485,9877.571693
305.591764,76.570323,210.568389,9820.143950
305.594243,95.712904,133.998066,9934.999435
305.596722,-0.000000,153.140646,9896.714274
305.599202,76.570323,172.283227,9877.571693
305.601645,19.142581,191.425808,9896.714274
305.604089,76.570323,210.568389,9858.429112
305.606533,19.142581,153.140646,9839.286531
305.608977,76.570323,114.855485,9858.429112
305.611421,57.427742,76.570323,9762.716208
305.613865,76.570323,114.855485,9820.143950
305.616308,-0.000000,248.853550,9896.714274
305.618752,76.570323,267.996131,9915.856854
305.621196,38.285162,229.710970,9915.856854
305.623640,76.570323,210.568389,9839.286531
305.626084,19.142581,153.140646,9801.001370
305.628528,114.855485,114.855485,9781.858789
305.630971,133.998066,95.712904,9820.143950
305.633415,76.570323,133.998066,9781.858789
305.635859,95.712904,210.568389,9877.571693
305.638303,57.427742,191.425808,9934.999435
305.640747,19.142581,133.998066,9896.714274
305.643191,76.570323,191.425808,9877.571693
305.645634,76.570323,172.283227,9877.571693
305.648078,76.570323,229.710970,9858.429112
305.650522,114.855485,191.425808,9762.716208
305.652966,76.570323,114.855485,9801.001370
305.655410,76.570323,76.570323,9915.856854
305.657854,-38.285162,76.570323,9839.286531
305.660297,19.142581,172.283227,9896.714274
305.662741,-0.000000,267.996131,9839.286531
305.665185,19.142581,248.853550,9858.429112
305.667629,76.570323,191.425808,9877.571693
305.670073,95.712904,210.568389,9858.429112
305.672517,191.425808,133.998066,9858.429112
305.674960,76.570323,172.283227,9801.001370
305.677404,-95.712904,172.283227,9820.143950
305.679848,76.570323,172.283227,9858.429112
305.682292,19.142581,191.425808,9896.714274
305.684736,57.427742,248.853550,9877.571693
305.687180,-19.142581,248.853550,9781.858789
305.689623,76.570323,172.283227,9801.001370
305.692067,191.425808,114.855485,9762.716208
305.694511,57.427742,57.427742,9801.001370
305.696955,76.570323,172.283227,9781.858789
305.699422,114.855485,172.283227,9877.571693
305.701890,76.570323,210.568389,9839.286531
305.704357,76.570323,210.568389,9877.571693
305.706825,19.142581,191.425808,9896.714274
305.709293,19.142581,172.283227,9801.001370
305.711760,76.570323,114.855485,9820.143950
305.714228,19.142581,133.998066,9781.858789
305.716695,191.425808,114.855485,9839.286531
305.719163,57.427742,95.712904,9724.431046
305.721630,95.712904,76.570323,9915.856854
305.724098,76.570323,210.568389,9877.571693
305.726565,95.712904,210.568389,9839.286531
305.729033,57.427742,248.853550,9877.571693
305.731501,114.855485,114.855485,9762.716208
305.733968,57.427742,95.712904,9781.858789
305.736436,114.855485,114.855485,9820.143950
305.738903,76.570323,153.140646,9858.429112
305.741371,76.570323,114.855485,9762.716208
305.743838,95.712904,153.140646,9858.429112
305.746306,76.570323,210.568389,9877.571693
305.748774,76.570323,191.425808,9896.714274
305.751241,19.142581,133.998066,9839.286531
305.753709,95.712904,172.283227,9858.429112
305.756176,133.998066,153.140646,9877.571693
305.758644,76.570323,172.283227,9762.716208
305.761111,76.570323,210.568389,9858.429112
305.763579,76.570323,210.568389,9820.143950
305.766046,114.855485,114.855485,9877.571693
305.768514,76.570323,229.710970,9839.286531
305.770982,95.712904,229.710970,9877.571693
305.773449,19.142581,248.853550,9858.429112
305.775917,19.142581,153.140646,9896.714274
305.778384,38.285162,76.570323,9839.286531
305.780852,19.142581,133.998066,9801.001370
305.783319,76.570323,210.568389,9839.286531
305.785787,76.570323,191.425808,9858.429112
305.788254,57.427742,287.138712,9839.286531
305.790722,95.712904,191.425808,9877.571693
305.793190,19.142581,153.140646,9858.429112
305.795657,19.142581,153.140646,9896.714274
305.798143,76.570323,114.855485,9858.429112
305.800630,19.142581,153.140646,9839.286531
305.803116,76.570323,210.568389,9820.143950
305.805602,133.998066,114.855485,9762.716208
305.808088,19.142581,191.425808,9781.858789
305.810575,38.285162,133.998066,9934.999435
305.813061,19.142581,153.140646,9858.429112
305.815547,76.570323,229.710970,9858.429112
305.818033,38.285162,210.568389,9915.856854
305.820519,95.712904,191.425808,9762.716208
305.823006,76.570323,114.855485,9858.429112
305.825492,57.427742,95.712904,9896.714274
305.827978,19.142581,248.853550,9801.001370
305.830464,114.855485,210.568389,9762.716208
305.832951,76.570323,229.710970,9877.571693
305.835437,57.427742,229.710970,9896.714274
305.837923,57.427742,172.283227,9934.999435
305.840409,19.142581,153.140646,9877.571693
305.842896,19.142581,133.998066,9896.714274
305.845382,76.570323,172.283227,9820.143950
305.847868,57.427742,191.425808,9934.999435
305.850354,95.712904,114.855485,9762.716208
305.852840,114.855485,172.283227,9820.143950
305.855327,95.712904,287.138712,9801.001370
305.857813,76.570323,210.568389,9839.286531
305.860299,19.142581,248.853550,9896.714274
305.862785,95.712904,229.710970,9801.001370
305.865272,57.427742,153.140646,9934.999435
305.867758,-57.427742,76.570323,9820.143950
305.870244,76.570323,114.855485,9820.143950
305.872730,76.570323,114.855485,9801.001370
305.875217,76.570323,172.283227,9877.571693
305.877703,153.140646,248.853550,9934.999435
305.880189,-0.000000,191.425808,9896.714274
305.882675,19.142581,153.140646,9820.143950
305.885161,76.570323,172.283227,9934.999435
305.887648,76.570323,114.855485,9820.143950
305.890134,191.425808,114.855485,9820.143950
305.892620,57.427742,229.710970,9781.858789
305.895106,76.570323,172.283227,9820.143950
305.897607,114.855485,114.855485,9839.286531
305.900108,38.285162,114.855485,10011.569758
305.902609,76.570323,229.710970,9839.286531
305.905110,133.998066,114.855485,9820.143950
305.907611,133.998066,172.283227,9820.143950
305.910112,19.142581,133.998066,9801.001370
305.912613,114.855485,114.855485,9762.716208
305.915113,114.855485,114.855485,9858.429112
305.917614,-38.285162,153.140646,9839.286531
305.920115,76.570323,229.710970,9877.571693
305.922616,38.285162,210.568389,9954.142016
305.925117,76.570323,114.855485,9877.571693
305.927618,95.712904,210.568389,9877.571693
305.930119,19.142581,133.998066,9839.286531
305.932620,19.142581,153.140646,9781.858789
305.935120,76.570323,172.283227,9877.571693
305.937621,19.142581,153.140646,9896.714274
305.940122,19.142581,153.140646,9801.001370
305.942623,19.142581,133.998066,9896.714274
305.945124,19.142581,191.425808,9896.714274
305.947625,57.427742,267.996131,9934.999435
305.950126,76.570323,114.855485,9820.143950
305.952627,76.570323,229.710970,9762.716208
305.955127,57.427742,95.712904,9858.429112
305.957628,133.998066,172.283227,9858.429112
305.960129,76.570323,172.283227,9839.286531
305.962630,76.570323,114.855485,9858.429112
305.965131,-38.285162,153.140646,9820.143950
305.967632,57.427742,153.140646,9877.571693
305.970133,76.570323,191.425808,9839.286531
305.972634,76.570323,191.425808,9820.143950
305.975135,19.142581,248.853550,9801.001370
305.977635,114.855485,191.425808,9877.571693
305.980136,76.570323,172.283227,9858.429112
305.982637,76.570323,172.283227,9801.001370
305.985138,-0.000000,153.140646,9896.714274
305.987639,19.142581,133.998066,9896.714274
305.990140,76.570323,172.283227,9820.143950
305.992641,153.140646,229.710970,9896.714274
305.995142,95.712904,229.710970,9801.001370
305.997654,95.712904,153.140646,9877.571693
306.000166,76.570323,172.283227,9877.571693
306.002679,19.142581,133.998066,9858.429112
306.005191,76.570323,114.855485,9820.143950
306.007703,57.427742,191.425808,9934.999435
306.010216,19.142581,191.425808,9896.714274
306.012728,38.285162,210.568389,9915.856854
306.015241,57.427742,172.283227,9877.571693
306.017753,57.427742,229.710970,9801.001370
306.020265,76.570323,172.283227,9820.143950
306.022778,95.712904,114.855485,9801.001370
306.025290,19.142581,133.998066,9801.001370
306.027802,114.855485,114.855485,9801.001370
306.030315,38.285162,133.998066,9839.286531
306.032827,19.142581,153.140646,9858.429112
306.035340,57.427742,248.853550,9877.571693
306.037852,57.427742,287.138712,9896.714274
306.040364,76.570323,191.425808,9858.429112
306.042877,19.142581,133.998066,9839.286531
306.045389,19.142581,191.425808,9801.001370
306.047902,57.427742,95.712904,9781.858789
306.050414,172.283227,133.998066,9820.143950
306.052926,57.427742,191.425808,9934.999435
306.055439,38.285162,229.710970,9915.856854
306.057951,38.285162,153.140646,9934.999435
306.060463,57.427742,191.425808,9858.429112
306.062976,19.142581,210.568389,9839.286531
306.065488,191.425808,133.998066,9858.429112
306.068001,57.427742,153.140646,9858.429112
306.070513,57.427742,114.855485,9820.143950
306.073025,57.427742,133.998066,9877.571693
306.075538,76.570323,229.710970,9877.571693
306.078050,57.427742,248.853550,9934.999435
306.080562,57.427742,153.140646,9934.999435
306.083075,19.142581,191.425808,9858.429112
306.085587,76.570323,114.855485,9820.143950
306.088100,76.570323,76.570323,9839.286531
306.090612,114.855485,229.710970,9781.858789
306.093124,57.427742,95.712904,9896.714274
306.095637,133.998066,153.140646,9877.571693
306.098158,38.285162,210.568389,9973.284597
306.100679,38.285162,248.853550,9801.001370
306.103201,76.570323,114.855485,9801.001370
306.105722,133.998066,114.855485,9801.001370
306.108244,95.712904,114.855485,9858.429112
306.110765,191.425808,210.568389,9858.429112
306.113286,76.570323,172.283227,9762.716208
306.115808,19.142581,153.140646,9801.001370
306.118329,57.427742,153.140646,9934.999435
306.120850,57.427742,153.140646,9877.571693
306.123372,114.855485,153.140646,9954.142016
306.125893,76.570323,229.710970,9858.429112
306.128414,57.427742,153.140646,9877.571693
306.130936,95.712904,114.855485,9762.716208
306.133457,76.570323,210.568389,9762.716208
306.135978,76.570323,153.140646,9801.001370
306.138500,76.570323,76.570323,9915.856854
306.141021,76.570323,210.568389,9858.429112
306.143543,76.570323,267.996131,9973.284597
306.146064,19.142581,248.853550,9858.429112
306.148585,19.142581,172.283227,9839.286531
306.151107,114.855485,248.853550,9839.286531
306.153628,114.855485,57.427742,9896.714274
306.156149,133.998066,153.140646,9743.573627
306.158671,38.285162,114.855485,9858.429112
306.161192,57.427742,153.140646,9934.999435
306.163713,114.855485,306.281293,9858.429112
306.166235,38.285162,191.425808,9915.856854
306.168756,-19.142581,153.140646,9839.286531
306.171277,57.427742,287.138712,9781.858789
306.173799,57.427742,133.998066,9877.571693
306.176320,114.855485,153.140646,9839.286531
306.178842,95.712904,153.140646,9762.716208
306.181363,76.570323,210.568389,9858.429112
306.183884,76.570323,172.283227,9839.286531
306.186406,76.570323,229.710970,9820.143950
306.188927,76.570323,229.710970,9839.286531
306.191448,57.427742,191.425808,9877.571693
306.193970,76.570323,114.855485,9762.716208
306.196491,133.998066,172.283227,9820.143950
306.199019,95.712904,229.710970,9858.429112
306.201548,133.998066,114.855485,9820.143950
306.204076,57.427742,114.855485,9820.143950
306.206605,114.855485,248.853550,9934.999435
306.209133,76.570323,153.140646,9858.429112
306.211661,57.427742,191.425808,9934.999435
306.214190,19.142581,210.568389,9858.429112
306.216718,76.570323,229.710970,9762.716208
306.219246,95.712904,153.140646,9839.286531
306.221775,57.427742,114.855485,9801.001370
306.224303,57.427742,95.712904,9801.001370
306.226832,114.855485,172.283227,9801.001370
306.229360,19.142581,191.425808,9896.714274
306.231888,19.142581,191.425808,9896.714274
306.234417,76.570323,210.568389,9839.286531
306.236945,133.998066,172.283227,9877.571693
306.239473,95.712904,210.568389,9820.143950
306.242002,57.427742,95.712904,9781.858789
306.244530,76.570323,153.140646,9801.001370
306.247059,76.570323,191.425808,9762.716208
306.249587,191.425808,95.712904,9934.999435
306.252115,19.142581,114.855485,9858.429112
306.254644,76.570323,229.710970,9820.143950
306.257172,57.427742,229.710970,9915.856854
306.259701,38.285162,210.568389,9915.856854
306.262229,57.427742,95.712904,9820.143950
306.264757,57.427742,57.427742,9896.714274
306.267286,76.570323,172.283227,9820.143950
306.269814,57.427742,114.855485,9820.143950
306.272342,114.855485,114.855485,9877.571693
306.274871,114.855485,229.710970,9896.714274
306.277399,38.285162,248.853550,9858.429112
306.279928,57.427742,191.425808,9934.999435
306.282456,19.142581,133.998066,9820.143950
306.284984,114.855485,133.998066,9934.999435
306.287513,153.140646,114.855485,9896.714274
306.290041,57.427742,114.855485,9781.858789
306.292569,76.570323,76.570323,9896.714274
306.295098,57.427742,153.140646,9877.571693
306.297626,19.142581,153.140646,9858.429112
306.300160,-19.142581,153.140646,9896.714274
306.302693,19.142581,191.425808,9801.001370
306.305227,38.285162,95.712904,9858.429112
306.307760,57.427742,95.712904,9839.286531
306.310294,133.998066,172.283227,9820.143950
306.312827,19.142581,153.140646,9858.429112
306.315361,76.570323,114.855485,9858.429112
306.317894,38.285162,229.710970,9915.856854
306.320428,19.142581,153.140646,9896.714274
306.322961,-0.000000,172.283227,9896.714274
306.325495,19.142581,153.140646,9839.286531
306.328028,19.142581,153.140646,9781.858789
306.330562,76.570323,153.140646,9762.716208
306.333095,76.570323,114.855485,9858.429112
306.335629,76.570323,114.855485,9820.143950
306.338162,76.570323,133.998066,9973.284597
306.340696,19.142581,210.568389,9896.714274
306.343229,76.570323,229.710970,9858.429112
306.345763,19.142581,153.140646,9896.714274
306.348296,76.570323,172.283227,9858.429112
306.350830,76.570323,114.855485,9801.001370
306.353363,57.427742,76.570323,9820.143950
306.355897,19.142581,172.283227,9743.573627
306.358430,95.712904,191.425808,9762.716208
306.360964,57.427742,153.140646,9934.999435
306.363497,57.427742,229.710970,9781.858789
306.366031,57.427742,287.138712,9839.286531
306.368564,76.570323,229.710970,9877.571693
306.371098,57.427742,114.855485,9801.001370
306.373631,76.570323,172.283227,9877.571693
306.376164,114.855485,114.855485,9820.143950
306.378698,19.142581,172.283227,9801.001370
306.381231,19.142581,191.425808,9839.286531
306.383765,76.570323,229.710970,9858.429112
306.386298,57.427742,210.568389,9973.284597
306.388832,19.142581,153.140646,9896.714274
306.391365,57.427742,153.140646,9934.999435
306.393899,57.427742,95.712904,9858.429112
306.396432,114.855485,95.712904,9781.858789
306.398966,153.140646,229.710970,9839.286531
306.401462,133.998066,153.140646,9858.429112
306.403958,76.570323,114.855485,9762.716208
306.406453,76.570323,210.568389,9877.571693
306.408949,38.285162,114.855485,9915.856854
306.411445,-38.285162,191.425808,9858.429112
306.413941,76.570323,210.568389,9877.571693
306.416437,38.285162,248.853550,9820.143950
306.418932,38.285162,76.570323,9762.716208
306.421428,57.427742,95.712904,9781.858789
306.423924,114.855485,153.140646,9877.571693
306.426420,19.142581,191.425808,9820.143950
306.428915,19.142581,191.425808,9896.714274
306.431411,38.285162,210.568389,9915.856854
306.433907,57.427742,229.710970,9801.001370
306.436403,153.140646,95.712904,9896.714274
306.438899,114.855485,114.855485,9820.143950
306.441394,76.570323,114.855485,9877.571693
306.443890,19.142581,133.998066,9781.858789
306.446386,114.855485,210.568389,9839.286531
306.448882,76.570323,191.425808,9762.716208
306.451378,76.570323,172.283227,9877.571693
306.453873,38.285162,172.283227,9915.856854
306.456369,114.855485,114.855485,9839.286531
306.458865,95.712904,172.283227,9858.429112
306.461361,114.855485,191.425808,9820.143950
306.463857,76.570323,172.283227,9762.716208
306.466352,114.855485,210.568389,9801.001370
306.468848,95.712904,95.712904,9839.286531
306.471344,95.712904,114.855485,9839.286531
306.473840,19.142581,191.425808,9839.286531
306.476336,76.570323,229.710970,9877.571693
306.478831,95.712904,153.140646,9934.999435
306.481327,57.427742,133.998066,9934.999435
306.483823,76.570323,210.568389,9820.143950
306.486319,153.140646,95.712904,9820.143950
306.488815,114.855485,191.425808,9820.143950
306.491310,95.712904,114.855485,9839.286531
306.493806,76.570323,172.283227,9877.571693
306.496302,57.427742,191.425808,9934.999435
306.498798,-57.427742,133.998066,9858.429112
306.501265,38.285162,191.425808,9896.714274
306.503733,114.855485,191.425808,9801.001370
306.506200,76.570323,114.855485,9820.143950
306.508668,95.712904,114.855485,9820.143950
306.511135,57.427742,133.998066,9877.571693
306.513602,19.142581,133.998066,9820.143950
306.516070,19.142581,287.138712,9934.999435
306.518537,19.142581,248.853550,9896.714274
306.521005,19.142581,248.853550,9896.714274
306.523472,76.570323,153.140646,9877.571693
306.525940,153.140646,76.570323,9820.143950
306.528407,95.712904,133.998066,9724.431046
306.530875,153.140646,133.998066,9762.716208
306.533342,76.570323,114.855485,9762.716208
306.535809,19.142581,248.853550,9801.001370
306.538277,57.427742,153.140646,9934.999435
306.540744,57.427742,191.425808,9934.999435
306.543212,76.570323,210.568389,9877.571693
306.545679,19.142581,153.140646,9934.999435
306.548147,76.570323,191.425808,9801.001370
306.550614,95.712904,57.427742,9801.001370
306.553081,133.998066,76.570323,9915.856854
306.555549,76.570323,114.855485,9820.143950
306.558016,76.570323,172.283227,9877.571693
306.560484,57.427742,287.138712,9896.714274
306.562951,38.285162,267.996131,9801.001370
306.565419,-19.142581,172.283227,9896.714274
306.567886,57.427742,153.140646,9934.999435
306.570354,57.427742,248.853550,9743.573627
306.572821,191.425808,133.998066,9858.429112
306.575288,57.427742,133.998066,9934.999435
306.577756,57.427742,172.283227,9820.143950
306.580223,57.427742,210.568389,9934.999435
306.582691,38.285162,210.568389,9915.856854
306.585158,38.285162,287.138712,9915.856854
306.587626,19.142581,191.425808,9896.714274
306.590093,57.427742,114.855485,9858.429112
306.592560,57.427742,95.712904,9705.288466
306.595028,57.427742,95.712904,9781.858789
306.597495,57.427742,153.140646,9877.571693
306.599983,19.142581,153.140646,9896.714274
306.602470,38.285162,191.425808,9915.856854
306.604958,76.570323,248.853550,9915.856854
306.607445,57.427742,114.855485,9896.714274
306.609933,114.855485,114.855485,9762.716208
306.612420,133.998066,229.710970,9762.716208
306.614908,95.712904,153.140646,9858.429112
306.617395,76.570323,210.568389,9820.143950
306.619883,38.285162,191.425808,9724.431046
306.622370,57.427742,172.283227,9839.286531
306.624858,172.283227,191.425808,9877.571693
306.627345,76.570323,191.425808,9858.429112
306.629833,38.285162,153.140646,9915.856854
306.632320,133.998066,133.998066,9915.856854
306.634807,76.570323,210.568389,9762.716208
306.637295,19.142581,153.140646,9801.001370
306.639782,19.142581,191.425808,9858.429112
306.642270,76.570323,153.140646,9858.429112
306.644757,133.998066,114.855485,9820.143950
306.647245,114.855485,210.568389,9934.999435
306.649732,76.570323,306.281293,9934.999435
306.652220,38.285162,133.998066,9858.429112
306.654707,153.140646,153.140646,9743.573627
306.657195,153.140646,76.570323,9839.286531
306.659682,57.427742,114.855485,9858.429112
306.662170,76.570323,114.855485,9762.716208
306.664657,114.855485,172.283227,9877.571693
306.667145,76.570323,210.568389,9839.286531
306.669632,76.570323,114.855485,9820.143950
306.672120,57.427742,153.140646,9934.999435
306.674607,57.427742,153.140646,9934.999435
306.677095,57.427742,191.425808,9762.716208
306.679582,76.570323,210.568389,9801.001370
306.682070,95.712904,172.283227,9858.429112
306.684557,19.142581,153.140646,9781.858789
306.687044,38.285162,95.712904,9877.571693
306.689532,57.427742,153.140646,9915.856854
306.692019,76.570323,191.425808,9877.571693
306.694507,57.427742,306.281293,9801.001370
306.696994,95.712904,210.568389,9858.429112
306.699497,153.140646,191.425808,9934.999435
306.702001,19.142581,248.853550,9781.858789
306.704505,57.427742,95.712904,9820.143950
306.707008,57.427742,95.712904,9896.714274
306.709512,19.142581,133.998066,9896.714274
306.712015,19.142581,229.710970,9934.999435
306.714519,76.570323,172.283227,9877.571693
306.717023,19.142581,191.425808,9839.286531
306.719526,114.855485,172.283227,9801.001370
306.722030,153.140646,229.710970,9839.286531
306.724534,133.998066,114.855485,9858.429112
306.727037,95.712904,114.855485,9820.143950
306.729541,19.142581,133.998066,9858.429112
306.732045,19.142581,133.998066,9896.714274
306.734548,19.142581,95.712904,9973.284597
306.737052,57.427742,287.138712,9896.714274
306.739556,57.427742,325.423874,9858.429112
306.742059,57.427742,287.138712,9839.286531
306.744563,133.998066,191.425808,9801.001370
306.747067,153.140646,95.712904,9801.001370
306.749570,76.570323,172.283227,9839.286531
306.752074,19.142581,153.140646,9801.001370
306.754577,19.142581,191.425808,9858.429112
306.757081,57.427742,191.425808,9934.999435
306.759585,38.285162,287.138712,9915.856854
306.762088,19.142581,153.140646,9781.858789
306.764592,76.570323,172.283227,9877.571693
306.767096,57.427742,191.425808,9877.571693
306.769599,57.427742,95.712904,9781.858789
306.772103,172.283227,76.570323,9877.571693
306.774607,57.427742,153.140646,9934.999435
306.777110,19.142581,172.283227,9839.286531
306.779614,114.855485,325.423874,9896.714274
306.782118,76.570323,229.710970,9858.429112
306.784621,76.570323,210.568389,9858.429112
306.787125,114.855485,114.855485,9858.429112
306.789629,76.570323,210.568389,9762.716208
306.792132,19.142581,114.855485,9762.716208
306.794636,153.140646,95.712904,9801.001370
306.797139,76.570323,191.425808,9839.286531
306.799656,38.285162,172.283227,9915.856854
306.802172,57.427742,153.140646,9954.142016
306.804688,-19.142581,248.853550,9896.714274
306.807204,57.427742,191.425808,9877.571693
306.809720,76.570323,210.568389,9801.001370
306.812236,95.712904,191.425808,9934.999435
306.814752,76.570323,95.712904,9743.573627
306.817269,57.427742,95.712904,9896.714274
306.819785,57.427742,57.427742,9858.429112
306.822301,19.142581,172.283227,9781.858789
306.824817,57.427742,191.425808,9934.999435
306.827333,95.712904,248.853550,9915.856854
306.829849,76.570323,172.283227,9820.143950
306.832365,76.570323,210.568389,9839.286531
306.834881,57.427742,95.712904,9781.858789
306.837398,76.570323,114.855485,9743.573627
306.839914,76.570323,114.855485,9877.571693
306.842430,76.570323,172.283227,9858.429112
306.844946,95.712904,114.855485,9858.429112
306.847462,38.285162,267.996131,9934.999435
306.849978,19.142581,133.998066,9896.714274
306.852494,76.570323,229.710970,9820.143950
306.855011,76.570323,210.568389,9801.001370
306.857527,76.570323,114.855485,9762.716208
306.860043,76.570323,114.855485,9839.286531
306.862559,19.142581,133.998066,9896.714274
306.865075,76.570323,229.710970,9820.143950
306.867591,19.142581,248.853550,9896.714274
306.870107,38.285162,248.853550,9877.571693
306.872624,153.140646,287.138712,9801.001370
306.875140,76.570323,191.425808,9896.714274
306.877656,95.712904,57.427742,9858.429112
306.880172,76.570323,172.283227,9820.143950
306.882688,57.427742,114.855485,9801.001370
306.885204,57.427742,114.855485,9839.286531
306.887720,57.427742,172.283227,9896.714274
306.890236,19.142581,153.140646,9896.714274
306.892753,38.285162,210.568389,9915.856854
306.895269,76.570323,153.140646,9877.571693
306.897785,76.570323,210.568389,9820.143950
306.900311,76.570323,210.568389,9762.716208
306.902837,133.998066,210.568389,9762.716208
306.905363,19.142581,153.140646,9858.429112
306.907889,114.855485,153.140646,9877.571693
306.910415,133.998066,229.710970,9858.429112
306.912942,57.427742,287.138712,9839.286531
306.915468,19.142581,191.425808,9839.286531
306.917994,19.142581,76.570323,9934.999435
306.920520,57.427742,133.998066,9934.999435
306.923046,114.855485,114.855485,9762.716208
306.925572,153.140646,172.283227,9820.143950
306.928098,76.570323,153.140646,9801.001370
306.930624,-0.000000,133.998066,9839.286531
306.933151,19.142581,153.140646,9896.714274
306.935677,19.142581,344.566454,9934.999435
306.938203,57.427742,287.138712,9781.858789
306.940729,153.140646,133.998066,9743.573627
306.943255,57.427742,0.000000,9858.429112
306.945781,57.427742,95.712904,9896.714274
306.948307,95.712904,344.566454,9858.429112
306.950834,57.427742,306.281293,9801.001370
306.953360,114.855485,229.710970,9839.286531
306.955886,38.285162,114.855485,9915.856854
306.958412,76.570323,76.570323,9973.284597
306.960938,19.142581,133.998066,9781.858789
306.963464,19.142581,133.998066,9801.001370
306.965990,114.855485,114.855485,9820.143950
306.968516,76.570323,172.283227,9820.143950
306.971043,153.140646,287.138712,9801.001370
306.973569,76.570323,287.138712,9858.429112
306.976095,57.427742,229.710970,9858.429112
306.978621,19.142581,153.140646,9896.714274
306.981147,19.142581,95.712904,9973.284597
306.983673,38.285162,38.285162,9762.716208
306.986199,76.570323,172.283227,9762.716208
