#time,accel_x,accel_y,accel_z
297.686508,38.285162,325.423874,9934.999435
297.689579,38.285162,210.568389,9992.427178
297.692650,76.570323,38.285162,9954.142016
297.695721,76.570323,38.285162,9915.856854
297.698792,95.712904,76.570323,9973.284597
297.701864,38.285162,76.570323,9877.571693
297.704935,95.712904,153.140646,9992.427178
297.708006,76.570323,229.710970,9934.999435
297.710982,76.570323,210.568389,9877.571693
297.713958,57.427742,133.998066,9820.143950
297.716934,57.427742,57.427742,9858.429112
297.719910,76.570323,76.570323,9724.431046
297.722887,76.570323,95.712904,9705.288466
297.725863,57.427742,153.140646,9858.429112
297.728839,114.855485,191.425808,9762.716208
297.731815,76.570323,229.710970,9762.716208
297.734791,38.285162,267.996131,9820.143950
297.737768,19.142581,210.568389,9839.286531
297.740744,38.285162,172.283227,9973.284597
297.743720,76.570323,133.998066,9915.856854
297.746696,19.142581,95.712904,9954.142016
297.749672,114.855485,191.425808,9954.142016
297.752648,114.855485,191.425808,9877.571693
297.755625,114.855485,153.140646,9915.856854
297.758601,57.427742,248.853550,9934.999435
297.761577,57.427742,133.998066,9877.571693
297.764553,76.570323,172.283227,9877.571693
297.767529,95.712904,172.283227,9820.143950
297.770506,114.855485,172.283227,9762.716208
297.773482,114.855485,172.283227,9705.288466
297.776458,133.998066,172.283227,9762.716208
297.779434,95.712904,287.138712,9781.858789
297.782410,153.140646,248.853550,9877.571693
297.785386,-0.000000,153.140646,9839.286531
297.788363,19.142581,153.140646,9858.429112
297.791339,76.570323,172.283227,9858.429112
297.794315,38.285162,172.283227,9934.999435
297.797291,57.427742,210.568389,9877.571693
297.800267,76.570323,210.568389,9858.429112
297.803244,114.855485,153.140646,9934.999435
297.806220,38.285162,267.996131,9877.571693
297.809196,76.570323,172.283227,9839.286531
297.812172,133.998066,114.855485,9762.716208
297.815148,38.285162,76.570323,9839.286531
297.818124,114.855485,191.425808,9934.999435
297.821101,19.142581,153.140646,9896.714274
297.824077,76.570323,133.998066,9973.284597
297.827053,57.427742,191.425808,9934.999435
297.829927,57.427742,114.855485,9820.143950
297.832801,95.712904,114.855485,9839.286531
297.835675,114.855485,114.855485,9801.001370
297.838549,57.427742,191.425808,9858.429112
297.841423,-57.427742,95.712904,9915.856854
297.844297,38.285162,114.855485,9724.431046
297.847171,19.142581,153.140646,9801.001370
297.850045,57.427742,191.425808,9743.573627
297.852918,57.427742,133.998066,9743.573627
297.855792,38.285162,76.570323,9820.143950
297.858666,76.570323,172.283227,9858.429112
297.861540,95.712904,76.570323,9896.714274
297.864414,76.570323,114.855485,9839.286531
297.867288,19.142581,114.855485,9934.999435
297.870162,38.285162,210.568389,9915.856854
297.873036,76.570323,210.568389,9877.571693
297.875910,57.427742,229.710970,9896.714274
297.878784,57.427742,153.140646,9934.999435
297.881658,38.285162,133.998066,9820.143950
297.884532,57.427742,57.427742,9915.856854
297.887406,57.427742,0.000000,9896.714274
297.890280,76.570323,229.710970,9858.429112
297.893154,95.712904,306.281293,9801.001370
297.896028,76.570323,229.710970,9839.286531
297.898902,38.285162,76.570323,9762.716208
297.901775,57.427742,95.712904,9896.714274
297.904649,95.712904,95.712904,9781.858789
297.907523,114.855485,95.712904,9724.431046
297.910397,76.570323,210.568389,9820.143950
297.913271,19.142581,153.140646,9724.431046
297.916145,-0.000000,76.570323,9762.716208
297.919019,-38.285162,172.283227,9915.856854
297.921893,76.570323,229.710970,9877.571693
297.924767,76.570323,172.283227,9858.429112
297.927641,114.855485,133.998066,9934.999435
297.930515,57.427742,114.855485,9896.714274
297.933389,114.855485,153.140646,9934.999435
297.936263,114.855485,153.140646,9934.999435
297.939137,114.855485,287.138712,9858.429112
297.942011,76.570323,229.710970,9877.571693
297.944803,-0.000000,191.425808,9781.858789
297.947595,19.142581,172.283227,9934.999435
297.950387,95.712904,95.712904,9839.286531
297.953179,76.570323,114.855485,9801.001370
297.955971,133.998066,210.568389,9820.143950
297.958763,95.712904,210.568389,9762.716208
297.961555,76.570323,210.568389,9877.571693
297.964347,76.570323,191.425808,9858.429112
297.967139,76.570323,114.855485,9858.429112
297.969931,19.142581,153.140646,9896.714274
297.972723,19.142581,133.998066,9820.143950
297.975515,76.570323,114.855485,9762.716208
297.978307,76.570323,114.855485,9858.429112
297.981099,76.570323,210.568389,9801.001370
297.983891,76.570323,114.855485,9801.001370
297.986683,57.427742,191.425808,9934.999435
297.989475,57.427742,191.425808,9934.999435
297.992267,19.142581,248.853550,9915.856854
297.995059,76.570323,172.283227,9858.429112
297.997851,76.570323,153.140646,9762.716208
298.000643,114.855485,172.283227,9762.716208
298.003435,76.570323,172.283227,9839.286531
298.006227,76.570323,172.283227,9877.571693
298.009019,19.142581,133.998066,9896.714274
298.011811,76.570323,114.855485,9858.429112
298.014603,133.998066,76.570323,9915.856854
298.017395,57.427742,95.712904,9801.001370
298.020187,76.570323,114.855485,9839.286531
298.022979,57.427742,114.855485,9801.001370
298.025771,57.427742,114.855485,9839.286531
298.028563,76.570323,153.140646,9820.143950
298.031355,153.140646,172.283227,9762.716208
298.034147,76.570323,153.140646,9839.286531
298.036939,95.712904,95.712904,9801.001370
298.039731,76.570323,133.998066,9781.858789
298.042523,114.855485,133.998066,9934.999435
298.045315,133.998066,191.425808,9820.143950
298.048107,76.570323,210.568389,9820.143950
298.050899,57.427742,248.853550,9877.571693
298.053691,38.285162,191.425808,9915.856854
298.056419,95.712904,76.570323,9915.856854
298.059147,57.427742,153.140646,9934.999435
298.061874,76.570323,114.855485,9839.286531
298.064602,19.142581,133.998066,9839.286531
298.067329,57.427742,153.140646,9934.999435
298.070057,95.712904,153.140646,9934.999435
298.072784,76.570323,210.568389,9858.429112
298.075512,76.570323,114.855485,9839.286531
298.078240,38.285162,76.570323,9801.001370
298.080967,19.142581,95.712904,9858.429112
298.083695,76.570323,114.855485,9762.716208
298.086422,57.427742,153.140646,9877.571693
298.089150,95.712904,114.855485,9877.571693
298.091877,19.142581,133.998066,9781.858789
298.094605,76.570323,133.998066,9896.714274
298.097333,114.855485,210.568389,9820.143950
298.100060,57.427742,153.140646,9762.716208
298.102788,114.855485,95.712904,9801.001370
298.105515,114.855485,191.425808,9877.571693
298.108243,95.712904,172.283227,9877.571693
298.110970,76.570323,210.568389,9820.143950
298.113698,95.712904,267.996131,9915.856854
298.116426,114.855485,210.568389,9877.571693
298.119153,57.427742,95.712904,9781.858789
298.121881,19.142581,172.283227,9839.286531
298.124608,76.570323,172.283227,9858.429112
298.127336,114.855485,114.855485,9877.571693
298.130063,19.142581,153.140646,9896.714274
298.132791,57.427742,95.712904,9896.714274
298.135519,76.570323,153.140646,9896.714274
298.138246,-57.427742,191.425808,9820.143950
298.140974,114.855485,229.710970,9762.716208
298.143701,19.142581,133.998066,9858.429112
298.146429,19.142581,114.855485,9743.573627
298.149156,76.570323,172.283227,9801.001370
298.151884,38.285162,153.140646,9820.143950
298.154612,76.570323,172.283227,9820.143950
298.157339,133.998066,229.710970,9839.286531
298.160067,76.570323,114.855485,9839.286531
298.162794,133.998066,153.140646,9839.286531
298.165471,76.570323,210.568389,9839.286531
298.168147,76.570323,229.710970,9877.571693
298.170823,57.427742,191.425808,9954.142016
298.173500,76.570323,172.283227,9839.286531
298.176176,57.427742,229.710970,9934.999435
298.178853,76.570323,191.425808,9801.001370
298.181529,57.427742,191.425808,9934.999435
298.184205,133.998066,172.283227,9839.286531
298.186882,133.998066,153.140646,9820.143950
298.189558,57.427742,210.568389,9762.716208
298.192235,19.142581,248.853550,9781.858789
298.194911,76.570323,210.568389,9820.143950
298.197587,114.855485,153.140646,9934.999435
298.200264,-0.000000,172.283227,9896.714274
298.202940,95.712904,153.140646,9858.429112
298.205617,76.570323,229.710970,9820.143950
298.208293,114.855485,210.568389,9839.286531
298.210969,133.998066,210.568389,9839.286531
298.213646,76.570323,153.140646,9801.001370
298.216322,76.570323,114.855485,9762.716208
298.218999,95.712904,172.283227,9762.716208
298.221675,57.427742,248.853550,9934.999435
298.224351,114.855485,153.140646,9877.571693
298.227028,57.427742,153.140646,9934.999435
298.229704,76.570323,172.283227,9858.429112
298.232381,19.142581,229.710970,9877.571693
298.235057,114.855485,210.568389,9858.429112
298.237733,76.570323,172.283227,9858.429112
298.240410,95.712904,95.712904,9839.286531
298.243086,76.570323,172.283227,9877.571693
298.245762,19.142581,172.283227,9896.714274
298.248439,38.285162,210.568389,9915.856854
298.251115,76.570323,153.140646,9820.143950
298.253792,76.570323,114.855485,9858.429112
298.256468,114.855485,114.855485,9839.286531
298.259144,57.427742,95.712904,9801.001370
298.261821,153.140646,114.855485,9781.858789
298.264497,76.570323,210.568389,9762.716208
298.267174,76.570323,172.283227,9820.143950
298.269850,95.712904,76.570323,9896.714274
298.272329,114.855485,153.140646,9820.143950
298.274808,76.570323,229.710970,9858.429112
298.277287,19.142581,133.998066,9858.429112
298.279766,95.712904,172.283227,9934.999435
298.282246,57.427742,210.568389,9934.999435
298.284725,133.998066,153.140646,9839.286531
298.287204,19.142581,153.140646,9781.858789
298.289683,76.570323,114.855485,9820.143950
298.292162,19.142581,133.998066,9896.714274
298.294641,76.570323,210.568389,9839.286531
298.297120,95.712904,153.140646,9934.999435
298.299599,76.570323,210.568389,9839.286531
298.302078,95.712904,191.425808,9915.856854
298.304557,76.570323,114.855485,9762.716208
298.307036,76.570323,153.140646,9801.001370
298.309516,95.712904,172.283227,9820.143950
298.311995,76.570323,133.998066,9724.431046
298.314474,76.570323,191.425808,9781.858789
298.316953,57.427742,191.425808,9934.999435
298.319432,76.570323,229.710970,9762.716208
298.321911,76.570323,114.855485,9839.286531
298.324390,19.142581,153.140646,9896.714274
298.326869,19.142581,133.998066,9801.001370
298.329348,57.427742,153.140646,9934.999435
298.331827,114.855485,153.140646,9934.999435
298.334306,95.712904,210.568389,9839.286531
298.336786,76.570323,229.710970,9801.001370
298.339265,95.712904,114.855485,9820.143950
298.341744,133.998066,191.425808,9820.143950
298.344223,114.855485,95.712904,9858.429112
298.346702,114.855485,267.996131,9915.856854
298.349181,19.142581,133.998066,9858.429112
298.351660,76.570323,172.283227,9820.143950
298.354139,76.570323,153.140646,9858.429112
298.356618,57.427742,95.712904,9781.858789
298.359097,76.570323,191.425808,9839.286531
298.361576,19.142581,248.853550,9858.429112
298.364056,38.285162,133.998066,9801.001370
298.366535,76.570323,172.283227,9820.143950
298.369014,133.998066,172.283227,9820.143950
298.371389,57.427742,114.855485,9896.714274
298.373765,57.427742,229.710970,9896.714274
298.376140,76.570323,210.568389,9877.571693
298.378516,76.570323,210.568389,9801.001370
298.380891,76.570323,172.283227,9762.716208
298.383266,114.855485,153.140646,9934.999435
298.385642,191.425808,172.283227,9858.429112
298.388017,76.570323,172.283227,9839.286531
298.390393,114.855485,172.283227,9858.429112
298.392768,114.855485,210.568389,9820.143950
298.395144,19.142581,248.853550,9839.286531
298.397519,19.142581,114.855485,9839.286531
298.399895,114.855485,153.140646,9934.999435
298.402270,19.142581,172.283227,9896.714274
298.404646,76.570323,153.140646,9839.286531
298.407021,114.855485,229.710970,9839.286531
298.409396,57.427742,95.712904,9781.858789
298.411772,76.570323,172.283227,9839.286531
298.414147,57.427742,57.427742,9839.286531
298.416523,114.855485,229.710970,9801.001370
298.418898,114.855485,172.283227,9839.286531
298.421274,133.998066,172.283227,9858.429112
298.423649,133.998066,76.570323,9781.858789
298.426025,57.427742,95.712904,9839.286531
298.428400,19.142581,210.568389,9858.429112
298.430776,76.570323,114.855485,9801.001370
298.433151,76.570323,114.855485,9839.286531
298.435526,76.570323,114.855485,9839.286531
298.437902,19.142581,191.425808,9801.001370
298.440277,38.285162,210.568389,9915.856854
298.442653,76.570323,114.855485,9877.571693
298.445028,76.570323,172.283227,9839.286531
298.447404,95.712904,133.998066,9915.856854
298.449779,38.285162,210.568389,9915.856854
298.452155,19.142581,191.425808,9801.001370
298.454530,76.570323,172.283227,9762.716208
298.456906,19.142581,153.140646,9801.001370
298.459281,133.998066,153.140646,9858.429112
298.461656,114.855485,76.570323,9896.714274
298.464032,76.570323,153.140646,9820.143950
298.466355,76.570323,153.140646,9820.143950
298.468678,-0.000000,114.855485,9877.571693
298.471000,76.570323,114.855485,9877.571693
298.473323,76.570323,114.855485,9877.571693
298.475646,19.142581,210.568389,9762.716208
298.477969,76.570323,153.140646,9820.143950
298.480292,76.570323,153.140646,9839.286531
298.482615,76.570323,114.855485,9820.143950
298.484938,57.427742,133.998066,9877.571693
298.487261,114.855485,191.425808,9934.999435
298.489584,38.285162,229.710970,9915.856854
298.491906,57.427742,133.998066,9934.999435
298.494229,95.712904,153.140646,9934.999435
298.496552,114.855485,153.140646,9858.429112
298.498875,95.712904,229.710970,9858.429112
298.501198,76.570323,210.568389,9820.143950
298.503521,153.140646,210.568389,9896.714274
298.505844,76.570323,114.855485,9858.429112
298.508167,76.570323,172.283227,9877.571693
298.510489,57.427742,153.140646,9934.999435
298.512812,19.142581,191.425808,9896.714274
298.515135,76.570323,76.570323,9839.286531
298.517458,38.285162,210.568389,9915.856854
298.519781,76.570323,210.568389,9762.716208
298.522104,57.427742,287.138712,9801.001370
298.524427,114.855485,172.283227,9762.716208
298.526750,57.427742,114.855485,9801.001370
298.529072,114.855485,133.998066,9954.142016
298.531395,19.142581,133.998066,9858.429112
298.533718,114.855485,287.138712,9781.858789
298.536041,76.570323,229.710970,9858.429112
298.538364,95.712904,95.712904,9896.714274
298.540687,191.425808,172.283227,9877.571693
298.543010,133.998066,191.425808,9858.429112
298.545333,19.142581,248.853550,9801.001370
298.547655,19.142581,191.425808,9801.001370
298.549978,-0.000000,191.425808,9896.714274
298.552301,153.140646,153.140646,9877.571693
298.554624,57.427742,114.855485,9858.429112
298.556947,57.427742,229.710970,9896.714274
298.559353,153.140646,287.138712,9839.286531
298.561759,114.855485,114.855485,9801.001370
298.564165,191.425808,114.855485,9877.571693
298.566571,38.285162,114.855485,9839.286531
298.568977,19.142581,172.283227,9781.858789
298.571383,19.142581,191.425808,9781.858789
298.573789,76.570323,210.568389,9820.143950
298.576195,95.712904,153.140646,9877.571693
298.578601,95.712904,210.568389,9820.143950
298.581007,19.142581,248.853550,9839.286531
298.583413,19.142581,95.712904,9934.999435
298.585819,57.427742,95.712904,9896.714274
298.588225,76.570323,114.855485,9877.571693
298.590631,114.855485,114.855485,9839.286531
298.593037,57.427742,153.140646,9762.716208
298.595443,114.855485,229.710970,9781.858789
298.597849,76.570323,172.283227,9858.429112
298.600255,57.427742,95.712904,9839.286531
298.602661,57.427742,95.712904,9858.429112
298.605067,76.570323,210.568389,9839.286531
298.607473,114.855485,172.283227,9820.143950
298.609879,19.142581,191.425808,9839.286531
298.612285,76.570323,153.140646,9820.143950
298.614691,191.425808,172.283227,9801.001370
298.617097,76.570323,153.140646,9858.429112
298.619503,95.712904,95.712904,9801.001370
298.621909,19.142581,172.283227,9839.286531
298.624315,57.427742,114.855485,9839.286531
298.626721,114.855485,210.568389,9839.286531
298.629127,57.427742,133.998066,9934.999435
298.631533,76.570323,153.140646,9877.571693
298.633939,95.712904,57.427742,9896.714274
298.636345,95.712904,95.712904,9839.286531
298.638751,57.427742,191.425808,9762.716208
298.641157,19.142581,248.853550,9820.143950
298.643563,38.285162,172.283227,9896.714274
298.645969,76.570323,76.570323,9915.856854
298.648375,19.142581,172.283227,9896.714274
298.650781,76.570323,172.283227,9877.571693
298.653187,57.427742,153.140646,9877.571693
298.655654,19.142581,153.140646,9801.001370
298.658117,76.570323,210.568389,9877.571693
298.660580,114.855485,248.853550,9877.571693
298.663043,76.570323,153.140646,9858.429112
298.665506,38.285162,172.283227,9915.856854
298.667969,76.570323,114.855485,9839.286531
298.670432,76.570323,114.855485,9877.571693
298.672894,133.998066,114.855485,9858.429112
298.675357,133.998066,172.283227,9820.143950
298.677820,57.427742,153.140646,9877.571693
298.680283,19.142581,133.998066,9896.714274
298.682746,114.855485,210.568389,9858.429112
298.685209,191.425808,172.283227,9858.429112
298.687672,76.570323,229.710970,9762.716208
298.690135,19.142581,133.998066,9801.001370
298.692598,19.142581,133.998066,9896.714274
298.695061,76.570323,172.283227,9858.429112
298.697524,76.570323,114.855485,9858.429112
298.699987,76.570323,114.855485,9877.571693
298.702449,38.285162,210.568389,9934.999435
298.704912,57.427742,210.568389,9934.999435
298.707375,57.427742,248.853550,9877.571693
298.709838,-0.000000,133.998066,9801.001370
298.712301,114.855485,114.855485,9877.571693
298.714764,133.998066,210.568389,9820.143950
298.717227,38.285162,133.998066,9762.716208
298.719690,114.855485,191.425808,9839.286531
298.722153,57.427742,248.853550,9934.999435
298.724616,57.427742,229.710970,9839.286531
298.727079,114.855485,172.283227,9858.429112
298.729542,57.427742,133.998066,9877.571693
298.732004,153.140646,95.712904,9781.858789
298.734467,38.285162,172.283227,9915.856854
298.736930,76.570323,191.425808,9801.001370
298.739393,19.142581,191.425808,9801.001370
298.741856,95.712904,210.568389,9877.571693
298.744319,76.570323,210.568389,9762.716208
298.746782,19.142581,191.425808,9896.714274
298.749245,38.285162,133.998066,9839.286531
298.751708,95.712904,95.712904,9781.858789
298.754210,76.570323,95.712904,9896.714274
298.756711,95.712904,114.855485,9858.429112
298.759213,76.570323,210.568389,9820.143950
298.761715,-19.142581,248.853550,9858.429112
298.764217,114.855485,229.710970,9820.143950
298.766718,114.855485,172.283227,9858.429112
298.769220,76.570323,172.283227,9858.429112
298.771722,76.570323,114.855485,9820.143950
298.774224,76.570323,114.855485,9820.143950
298.776725,57.427742,133.998066,9877.571693
298.779227,95.712904,95.712904,9896.714274
298.781729,19.142581,191.425808,9896.714274
298.784231,95.712904,191.425808,9820.143950
298.786732,57.427742,172.283227,9820.143950
298.789234,76.570323,172.283227,9801.001370
298.791736,76.570323,114.855485,9820.143950
298.794238,19.142581,133.998066,9781.858789
298.796740,153.140646,114.855485,9896.714274
298.799241,76.570323,114.855485,9877.571693
298.801743,76.570323,114.855485,9839.286531
298.804245,76.570323,248.853550,9915.856854
298.806747,-0.000000,172.283227,9858.429112
298.809248,76.570323,172.283227,9762.716208
298.811750,19.142581,191.425808,9781.858789
298.814252,95.712904,114.855485,9820.143950
298.816754,95.712904,114.855485,9877.571693
298.819255,19.142581,153.140646,9801.001370
298.821757,153.140646,191.425808,9877.571693
298.824259,95.712904,114.855485,9877.571693
298.826761,76.570323,210.568389,9820.143950
298.829262,76.570323,172.283227,9820.143950
298.831764,76.570323,172.283227,9839.286531
298.834266,76.570323,229.710970,9839.286531
298.836768,76.570323,172.283227,9858.429112
298.839270,114.855485,114.855485,9839.286531
298.841771,19.142581,172.283227,9858.429112
298.844273,76.570323,210.568389,9858.429112
298.846775,38.285162,172.283227,9915.856854
298.849277,19.142581,114.855485,9934.999435
298.851778,133.998066,172.283227,9858.429112
298.854306,114.855485,172.283227,9877.571693
298.856833,57.427742,153.140646,9858.429112
298.859361,95.712904,210.568389,9877.571693
298.861889,133.998066,229.710970,9801.001370
298.864416,76.570323,191.425808,9858.429112
298.866944,114.855485,248.853550,9858.429112
298.869471,114.855485,172.283227,9858.429112
298.871999,153.140646,172.283227,9839.286531
298.874526,76.570323,172.283227,9820.143950
298.877054,57.427742,133.998066,9934.999435
298.879582,38.285162,172.283227,9915.856854
298.882109,19.142581,248.853550,9801.001370
298.884637,19.142581,191.425808,9896.714274
298.887164,-0.000000,191.425808,9896.714274
298.889692,38.285162,114.855485,9915.856854
298.892219,114.855485,229.710970,9877.571693
298.894747,95.712904,191.425808,9839.286531
298.897275,19.142581,153.140646,9839.286531
298.899802,76.570323,153.140646,9858.429112
298.902330,76.570323,133.998066,9896.714274
298.904857,57.427742,114.855485,9896.714274
298.907385,19.142581,267.996131,9858.429112
298.909912,76.570323,229.710970,9762.716208
298.912440,76.570323,210.568389,9801.001370
298.914968,76.570323,172.283227,9858.429112
298.917495,76.570323,172.283227,9858.429112
298.920023,76.570323,172.283227,9820.143950
298.922550,76.570323,210.568389,9820.143950
298.925078,76.570323,191.425808,9858.429112
298.927605,19.142581,153.140646,9801.001370
298.930133,76.570323,210.568389,9762.716208
298.932660,133.998066,172.283227,9820.143950
298.935188,133.998066,153.140646,9762.716208
298.937716,76.570323,153.140646,9877.571693
298.940243,19.142581,133.998066,9858.429112
298.942771,38.285162,114.855485,9896.714274
298.945298,76.570323,114.855485,9877.571693
298.947826,76.570323,114.855485,9801.001370
298.950353,95.712904,153.140646,9839.286531
298.952881,133.998066,210.568389,9839.286531
298.955426,19.142581,210.568389,9801.001370
298.957970,57.427742,95.712904,9839.286531
298.960515,76.570323,114.855485,9877.571693
298.963060,114.855485,114.855485,9801.001370
298.965604,133.998066,210.568389,9820.143950
298.968149,76.570323,229.710970,9877.571693
298.970694,19.142581,153.140646,9858.429112
298.973239,57.427742,95.712904,9801.001370
298.975783,38.285162,76.570323,9820.143950
298.978328,19.142581,133.998066,9820.143950
298.980873,76.570323,153.140646,9839.286531
298.983417,95.712904,210.568389,9877.571693
298.985962,19.142581,172.283227,9820.143950
298.988507,19.142581,133.998066,9801.001370
298.991051,114.855485,172.283227,9877.571693
298.993596,19.142581,153.140646,9801.001370
298.996141,57.427742,191.425808,9877.571693
298.998685,76.570323,153.140646,9858.429112
299.001230,38.285162,210.568389,9915.856854
299.003775,19.142581,153.140646,9896.714274
299.006320,76.570323,229.710970,9762.716208
299.008864,76.570323,191.425808,9839.286531
299.011409,76.570323,153.140646,9877.571693
299.013954,114.855485,114.855485,9839.286531
299.016498,57.427742,95.712904,9801.001370
299.019043,38.285162,153.140646,9820.143950
299.021588,95.712904,210.568389,9820.143950
299.024132,76.570323,210.568389,9877.571693
299.026677,19.142581,153.140646,9896.714274
299.029222,57.427742,133.998066,9934.999435
299.031766,76.570323,210.568389,9820.143950
299.034311,114.855485,229.710970,9820.143950
299.036856,76.570323,172.283227,9801.001370
299.039401,38.285162,133.998066,9839.286531
299.041945,76.570323,153.140646,9820.143950
299.044490,76.570323,210.568389,9820.143950
299.047035,114.855485,153.140646,9877.571693
299.049579,19.142581,172.283227,9820.143950
299.052124,76.570323,114.855485,9839.286531
299.054669,153.140646,95.712904,9801.001370
299.057223,76.570323,172.283227,9858.429112
299.059778,133.998066,114.855485,9820.143950
299.062333,76.570323,153.140646,9781.858789
299.064888,114.855485,172.283227,9801.001370
299.067442,57.427742,287.138712,9896.714274
299.069997,57.427742,153.140646,9934.999435
299.072552,114.855485,133.998066,9934.999435
299.075107,95.712904,172.283227,9762.716208
299.077661,95.712904,153.140646,9934.999435
299.080216,95.712904,172.283227,9762.716208
299.082771,57.427742,229.710970,9858.429112
299.085326,76.570323,210.568389,9820.143950
299.087880,76.570323,133.998066,9781.858789
299.090435,133.998066,191.425808,9762.716208
299.092990,76.570323,114.855485,9820.143950
299.095545,76.570323,114.855485,9801.001370
299.098099,76.570323,210.568389,9858.429112
299.100654,76.570323,191.425808,9762.716208
299.103209,133.998066,153.140646,9820.143950
299.105764,57.427742,191.425808,9877.571693
299.108318,19.142581,191.425808,9839.286531
299.110873,114.855485,210.568389,9801.001370
299.113428,57.427742,172.283227,9743.573627
299.115983,57.427742,191.425808,9858.429112
299.118537,114.855485,229.710970,9820.143950
299.121092,19.142581,153.140646,9839.286531
299.123647,38.285162,153.140646,9801.001370
299.126202,19.142581,133.998066,9896.714274
299.128756,57.427742,210.568389,9915.856854
299.131311,114.855485,172.283227,9858.429112
299.133866,76.570323,95.712904,9934.999435
299.136421,76.570323,153.140646,9820.143950
299.138975,76.570323,153.140646,9820.143950
299.141530,114.855485,114.855485,9877.571693
299.144085,76.570323,114.855485,9762.716208
299.146639,76.570323,210.568389,9877.571693
299.149194,95.712904,191.425808,9934.999435
299.151749,19.142581,210.568389,9896.714274
299.154304,19.142581,191.425808,9896.714274
299.156858,114.855485,172.283227,9820.143950
299.159346,95.712904,114.855485,9801.001370
299.161833,57.427742,114.855485,9801.001370
299.164320,114.855485,210.568389,9877.571693
299.166807,114.855485,114.855485,9762.716208
299.169295,19.142581,153.140646,9839.286531
299.171782,114.855485,153.140646,9934.999435
299.174269,19.142581,133.998066,9896.714274
299.176756,57.427742,95.712904,9896.714274
299.179244,57.427742,153.140646,9934.999435
299.181731,19.142581,153.140646,9877.571693
299.184218,114.855485,172.283227,9762.716208
299.186705,19.142581,229.710970,9820.143950
299.189193,76.570323,133.998066,9896.714274
299.191680,76.570323,210.568389,9858.429112
299.194167,57.427742,153.140646,9877.571693
299.196654,95.712904,172.283227,9877.571693
299.199142,57.427742,95.712904,9896.714274
299.201629,76.570323,114.855485,9820.143950
299.204116,19.142581,133.998066,9801.001370
299.206603,76.570323,210.568389,9877.571693
299.209090,76.570323,191.425808,9820.143950
299.211578,114.855485,229.710970,9762.716208
299.214065,95.712904,114.855485,9839.286531
299.216552,76.570323,114.855485,9877.571693
299.219039,76.570323,114.855485,9820.143950
299.221527,19.142581,172.283227,9896.714274
299.224014,19.142581,191.425808,9896.714274
299.226501,57.427742,153.140646,9877.571693
299.228988,19.142581,248.853550,9858.429112
299.231476,114.855485,172.283227,9801.001370
299.233963,76.570323,210.568389,9801.001370
299.236450,76.570323,210.568389,9762.716208
299.238937,19.142581,153.140646,9801.001370
299.241425,114.855485,210.568389,9820.143950
299.243912,114.855485,172.283227,9839.286531
299.246399,95.712904,133.998066,9858.429112
299.248886,76.570323,153.140646,9839.286531
299.251374,38.285162,248.853550,9858.429112
299.253861,76.570323,229.710970,9820.143950
299.256348,19.142581,191.425808,9781.858789
299.258790,57.427742,114.855485,9839.286531
299.261232,114.855485,95.712904,9801.001370
299.263674,95.712904,114.855485,9896.714274
299.266115,76.570323,172.283227,9820.143950
299.268557,19.142581,248.853550,9896.714274
299.270999,76.570323,229.710970,9801.001370
299.273441,153.140646,229.710970,9896.714274
299.275883,76.570323,114.855485,9877.571693
299.278324,19.142581,133.998066,9801.001370
299.280766,76.570323,210.568389,9820.143950
299.283208,133.998066,210.568389,9801.001370
299.285650,191.425808,153.140646,9839.286531
299.288092,76.570323,210.568389,9877.571693
299.290534,57.427742,133.998066,9858.429112
299.292975,76.570323,229.710970,9877.571693
299.295417,57.427742,153.140646,9934.999435
299.297859,76.570323,172.283227,9858.429112
299.300301,95.712904,210.568389,9801.001370
299.302743,76.570323,210.568389,9858.429112
299.305185,76.570323,114.855485,9762.716208
299.307626,114.855485,172.283227,9820.143950
299.310068,76.570323,153.140646,9820.143950
299.312510,76.570323,191.425808,9877.571693
299.314952,76.570323,172.283227,9839.286531
299.317394,57.427742,133.998066,9877.571693
299.319835,19.142581,153.140646,9896.714274
299.322277,95.712904,95.712904,9858.429112
299.324719,57.427742,133.998066,9934.999435
299.327161,-0.000000,153.140646,9820.143950
299.329603,95.712904,191.425808,9934.999435
299.332045,57.427742,287.138712,9801.001370
299.334486,76.570323,172.283227,9858.429112
299.336928,76.570323,114.855485,9858.429112
299.339370,-0.000000,76.570323,9877.571693
299.341812,-38.285162,267.996131,9877.571693
299.344254,95.712904,95.712904,9839.286531
299.346695,76.570323,114.855485,9820.143950
299.349137,95.712904,210.568389,9839.286531
299.351579,133.998066,114.855485,9839.286531
299.354021,19.142581,210.568389,9820.143950
299.356433,57.427742,172.283227,9801.001370
299.358845,133.998066,172.283227,9839.286531
299.361258,95.712904,172.283227,9877.571693
299.363670,19.142581,153.140646,9858.429112
299.366082,57.427742,153.140646,9934.999435
299.368494,95.712904,133.998066,9934.999435
299.370907,57.427742,133.998066,9934.999435
299.373319,57.427742,76.570323,9877.571693
299.375731,-19.142581,210.568389,9839.286531
299.378143,114.855485,287.138712,9781.858789
299.380556,19.142581,133.998066,9839.286531
299.382968,76.570323,172.283227,9762.716208
299.385380,19.142581,172.283227,9896.714274
299.387793,19.142581,133.998066,9839.286531
299.390205,114.855485,210.568389,9839.286531
299.392617,133.998066,133.998066,9896.714274
299.395029,76.570323,133.998066,9915.856854
299.397442,114.855485,287.138712,9839.286531
299.399854,114.855485,210.568389,9762.716208
299.402266,114.855485,248.853550,9820.143950
299.404678,19.142581,153.140646,9781.858789
299.407091,57.427742,95.712904,9896.714274
299.409503,76.570323,210.568389,9820.143950
299.411915,57.427742,114.855485,9839.286531
299.414327,57.427742,153.140646,9934.999435
299.416740,57.427742,210.568389,9896.714274
299.419152,76.570323,153.140646,9839.286531
299.421564,57.427742,248.853550,9934.999435
299.423976,76.570323,172.283227,9820.143950
299.426389,76.570323,229.710970,9896.714274
299.428801,19.142581,133.998066,9801.001370
299.431213,57.427742,95.712904,9820.143950
299.433625,114.855485,153.140646,9762.716208
299.436038,95.712904,172.283227,9839.286531
299.438450,95.712904,210.568389,9877.571693
299.440862,38.285162,172.283227,9915.856854
299.443274,95.712904,153.140646,9915.856854
299.445687,114.855485,133.998066,9934.999435
299.448099,38.285162,248.853550,9801.001370
299.450511,19.142581,210.568389,9781.858789
299.452967,133.998066,114.855485,9839.286531
299.455423,76.570323,172.283227,9877.571693
299.457879,57.427742,248.853550,9934.999435
299.460335,38.285162,267.996131,9877.571693
299.462792,76.570323,210.568389,9877.571693
299.465248,114.855485,95.712904,9877.571693
299.467704,57.427742,133.998066,9877.571693
299.470160,19.142581,172.283227,9781.858789
299.472616,-0.000000,191.425808,9896.714274
299.475072,19.142581,248.853550,9781.858789
299.477528,38.285162,267.996131,9820.143950
299.479984,153.140646,172.283227,9954.142016
299.482440,114.855485,114.855485,9877.571693
299.484896,76.570323,133.998066,9954.142016
299.487352,38.285162,76.570323,9858.429112
299.489809,38.285162,133.998066,9877.571693
299.492265,57.427742,95.712904,9820.143950
299.494721,133.998066,229.710970,9762.716208
299.497177,76.570323,210.568389,9820.143950
299.499633,76.570323,172.283227,9820.143950
299.502089,38.285162,248.853550,9820.143950
299.504545,95.712904,210.568389,9877.571693
299.507001,19.142581,153.140646,9801.001370
299.509457,114.855485,191.425808,9934.999435
299.511913,114.855485,114.855485,9781.858789
299.514369,19.142581,133.998066,9801.001370
299.516826,76.570323,210.568389,9839.286531
299.519282,76.570323,210.568389,9839.286531
299.521738,95.712904,287.138712,9858.429112
299.524194,76.570323,153.140646,9877.571693
299.526650,19.142581,210.568389,9858.429112
299.529106,57.427742,95.712904,9781.858789
299.531562,57.427742,133.998066,9877.571693
299.534018,-19.142581,133.998066,9877.571693
299.536474,76.570323,172.283227,9858.429112
299.538930,38.285162,172.283227,9896.714274
299.541386,76.570323,153.140646,9877.571693
299.543843,95.712904,210.568389,9762.716208
299.546299,95.712904,114.855485,9839.286531
299.548755,95.712904,114.855485,9839.286531
299.551246,76.570323,210.568389,9877.571693
299.553737,38.285162,210.568389,9934.999435
299.556228,76.570323,210.568389,9820.143950
299.558719,76.570323,210.568389,9877.571693
299.561210,38.285162,76.570323,9820.143950
299.563701,114.855485,172.283227,9877.571693
299.566192,76.570323,210.568389,9877.571693
299.568683,76.570323,210.568389,9762.716208
299.571174,19.142581,133.998066,9801.001370
299.573665,95.712904,114.855485,9858.429112
299.576156,76.570323,114.855485,9915.856854
299.578647,57.427742,133.998066,9934.999435
299.581138,19.142581,153.140646,9820.143950
299.583629,57.427742,287.138712,9801.001370
299.586120,76.570323,172.283227,9858.429112
299.588611,76.570323,114.855485,9858.429112
299.591102,19.142581,172.283227,9858.429112
299.593593,38.285162,76.570323,9877.571693
299.596084,19.142581,153.140646,9801.001370
299.598575,-57.427742,191.425808,9915.856854
299.601066,57.427742,95.712904,9896.714274
299.603557,114.855485,287.138712,9820.143950
299.606048,76.570323,210.568389,9877.571693
299.608539,-0.000000,133.998066,9762.716208
299.611030,153.140646,114.855485,9781.858789
299.613521,76.570323,76.570323,9915.856854
299.616012,76.570323,210.568389,9877.571693
299.618503,95.712904,229.710970,9820.143950
299.620994,114.855485,229.710970,9762.716208
299.623485,114.855485,191.425808,9877.571693
299.625976,76.570323,172.283227,9877.571693
299.628467,38.285162,114.855485,9877.571693
299.630958,38.285162,248.853550,9877.571693
299.633449,76.570323,210.568389,9858.429112
299.635940,76.570323,114.855485,9858.429112
299.638431,76.570323,172.283227,9858.429112
299.640922,19.142581,172.283227,9839.286531
299.643413,95.712904,210.568389,9820.143950
299.645904,57.427742,229.710970,9781.858789
299.648395,76.570323,210.568389,9877.571693
299.650851,114.855485,210.568389,9877.571693
299.653309,95.712904,153.140646,9934.999435
299.655766,76.570323,114.855485,9839.286531
299.658224,114.855485,172.283227,9801.001370
299.660682,76.570323,153.140646,9877.571693
299.663140,-57.427742,210.568389,9973.284597
299.665597,76.570323,172.283227,9820.143950
299.668055,76.570323,229.710970,9801.001370
299.670513,19.142581,248.853550,9801.001370
299.672971,38.285162,76.570323,9801.001370
299.675428,114.855485,76.570323,9915.856854
299.677886,76.570323,210.568389,9839.286531
299.680344,76.570323,267.996131,9896.714274
299.682802,114.855485,172.283227,9858.429112
299.685259,114.855485,114.855485,9877.571693
299.687717,114.855485,114.855485,9839.286531
299.690175,76.570323,133.998066,9801.001370
299.692633,76.570323,210.568389,9762.716208
299.695090,76.570323,229.710970,9762.716208
299.697548,76.570323,172.283227,9858.429112
299.700006,114.855485,95.712904,9801.001370
299.702464,95.712904,172.283227,9877.571693
299.704921,38.285162,210.568389,9934.999435
299.707379,76.570323,172.283227,9820.143950
299.709837,19.142581,210.568389,9915.856854
299.712295,114.855485,172.283227,9877.571693
299.714752,76.570323,172.283227,9839.286531
299.717210,19.142581,153.140646,9801.001370
299.719668,76.570323,210.568389,9801.001370
299.722126,95.712904,114.855485,9877.571693
299.724583,114.855485,114.855485,9820.143950
299.727041,133.998066,172.283227,9877.571693
299.729499,114.855485,114.855485,9877.571693
299.731956,76.570323,210.568389,9801.001370
299.734414,76.570323,172.283227,9820.143950
299.736872,191.425808,172.283227,9781.858789
299.739330,114.855485,114.855485,9781.858789
299.741787,95.712904,153.140646,9839.286531
299.744245,76.570323,210.568389,9801.001370
299.746703,19.142581,133.998066,9896.714274
299.749195,95.712904,172.283227,9839.286531
299.751687,38.285162,210.568389,9915.856854
299.754179,114.855485,172.283227,9839.286531
299.756672,57.427742,95.712904,9820.143950
299.759164,19.142581,153.140646,9801.001370
299.761656,76.570323,172.283227,9858.429112
299.764148,76.570323,172.283227,9839.286531
299.766640,191.425808,248.853550,9781.858789
299.769132,95.712904,95.712904,9781.858789
299.771624,76.570323,172.283227,9839.286531
299.774117,76.570323,210.568389,9858.429112
299.776609,76.570323,172.283227,9877.571693
299.779101,19.142581,153.140646,9896.714274
299.781593,19.142581,133.998066,9801.001370
299.784085,19.142581,191.425808,9820.143950
299.786577,114.855485,172.283227,9877.571693
299.789070,19.142581,191.425808,9858.429112
299.791562,19.142581,191.425808,9820.143950
299.794054,114.855485,95.712904,9896.714274
299.796546,76.570323,229.710970,9858.429112
299.799038,19.142581,95.712904,9934.999435
299.801530,76.570323,153.140646,9877.571693
299.804022,57.427742,133.998066,9973.284597
299.806515,76.570323,114.855485,9877.571693
299.809007,38.285162,172.283227,9915.856854
299.811499,76.570323,210.568389,9762.716208
299.813991,76.570323,172.283227,9877.571693
299.816483,76.570323,210.568389,9820.143950
299.818975,76.570323,210.568389,9839.286531
299.821467,76.570323,114.855485,9877.571693
299.823960,19.142581,191.425808,9839.286531
299.826452,57.427742,172.283227,9877.571693
299.828944,19.142581,248.853550,9858.429112
299.831436,57.427742,57.427742,9801.001370
299.833928,95.712904,95.712904,9896.714274
299.836420,76.570323,248.853550,9858.429112
299.838913,133.998066,153.140646,9801.001370
299.841405,114.855485,229.710970,9801.001370
299.843897,76.570323,172.283227,9820.143950
299.846389,95.712904,133.998066,9896.714274
299.848907,76.570323,172.283227,9762.716208
299.851425,76.570323,172.283227,9877.571693
299.853943,19.142581,133.998066,9801.001370
299.856461,76.570323,229.710970,9820.143950
299.858980,114.855485,172.283227,9877.571693
299.861498,19.142581,133.998066,9858.429112
299.864016,-19.142581,210.568389,9705.288466
299.866534,19.142581,191.425808,9801.001370
299.869052,76.570323,172.283227,9877.571693
299.871570,19.142581,191.425808,9896.714274
299.874088,133.998066,172.283227,9839.286531
299.876607,76.570323,267.996131,9915.856854
299.879125,38.285162,248.853550,9801.001370
299.881643,76.570323,153.140646,9781.858789
299.884161,76.570323,114.855485,9839.286531
299.886679,76.570323,210.568389,9801.001370
299.889197,95.712904,229.710970,9820.143950
299.891715,19.142581,248.853550,9781.858789
299.894233,76.570323,210.568389,9858.429112
299.896752,76.570323,114.855485,9762.716208
299.899270,38.285162,38.285162,9877.571693
299.901788,57.427742,210.568389,9934.999435
299.904306,57.427742,287.138712,9839.286531
299.906824,57.427742,363.709035,9781.858789
299.909342,19.142581,325.423874,9877.571693
299.911860,76.570323,114.855485,9801.001370
299.914378,19.142581,-19.142581,9839.286531
299.916897,19.142581,57.427742,9934.999435
299.919415,114.855485,172.283227,9820.143950
299.921933,57.427742,306.281293,9781.858789
299.924451,76.570323,229.710970,9820.143950
299.926969,76.570323,153.140646,9858.429112
299.929487,76.570323,76.570323,9896.714274
299.932005,57.427742,38.285162,9877.571693
299.934524,95.712904,114.855485,9820.143950
299.937042,76.570323,114.855485,9820.143950
299.939560,57.427742,172.283227,9820.143950
299.942078,38.285162,210.568389,9973.284597
299.944596,76.570323,76.570323,9896.714274
299.947114,95.712904,153.140646,9839.286531
299.949652,19.142581,287.138712,9934.999435
299.952189,57.427742,229.710970,9820.143950
299.954726,76.570323,95.712904,9762.716208
299.957264,57.427742,57.427742,9896.714274
299.959801,57.427742,95.712904,9820.143950
299.962339,133.998066,191.425808,9762.716208
299.964876,38.285162,267.996131,9743.573627
299.967413,95.712904,210.568389,9820.143950
299.969951,114.855485,76.570323,9915.856854
299.972488,76.570323,38.285162,9915.856854
299.975025,57.427742,95.712904,9839.286531
299.977563,76.570323,248.853550,9801.001370
299.980100,76.570323,210.568389,9820.143950
299.982638,76.570323,172.283227,9877.571693
299.985175,57.427742,133.998066,9934.999435
299.987712,76.570323,172.283227,9877.571693
299.990250,76.570323,210.568389,9877.571693
299.992787,114.855485,172.283227,9877.571693
299.995325,191.425808,172.283227,9877.571693
299.997862,76.570323,210.568389,9877.571693
300.000399,76.570323,172.283227,9820.143950
300.002937,76.570323,172.283227,9762.716208
300.005474,76.570323,229.710970,9858.429112
300.008012,57.427742,287.138712,9724.431046
300.010549,76.570323,172.283227,9877.571693
300.013086,38.285162,114.855485,9915.856854
300.015624,57.427742,95.712904,9839.286531
300.018161,76.570323,114.855485,9839.286531
300.020699,19.142581,191.425808,9896.714274
300.023236,19.142581,267.996131,9781.858789
300.025773,114.855485,287.138712,9858.429112
300.028311,38.285162,153.140646,9839.286531
300.030848,57.427742,114.855485,9896.714274
300.033386,95.712904,95.712904,9839.286531
300.035923,76.570323,248.853550,9896.714274
300.038460,76.570323,210.568389,9762.716208
300.040998,76.570323,210.568389,9839.286531
300.043535,95.712904,153.140646,9954.142016
300.046073,57.427742,210.568389,9934.999435
300.048610,76.570323,114.855485,9877.571693
300.051161,19.142581,191.425808,9839.286531
300.053713,76.570323,210.568389,9858.429112
300.056264,95.712904,248.853550,9934.999435
300.058815,19.142581,210.568389,9781.858789
300.061366,76.570323,210.568389,9858.429112
300.063918,19.142581,191.425808,9839.286531
300.066469,153.140646,191.425808,9877.571693
300.069020,76.570323,133.998066,9896.714274
300.071572,19.142581,191.425808,9858.429112
300.074123,76.570323,210.568389,9858.429112
300.076674,-38.285162,172.283227,9858.429112
300.079225,76.570323,153.140646,9801.001370
300.081777,76.570323,38.285162,9896.714274
300.084328,38.285162,76.570323,9858.429112
300.086879,38.285162,172.283227,9839.286531
300.089431,76.570323,172.283227,9762.716208
300.091982,95.712904,172.283227,9934.999435
300.094533,76.570323,76.570323,9896.714274
300.097084,76.570323,210.568389,9877.571693
300.099636,38.285162,325.423874,9877.571693
300.102187,95.712904,114.855485,9820.143950
300.104738,76.570323,114.855485,9820.143950
300.107290,38.285162,76.570323,9820.143950
300.109841,95.712904,95.712904,9896.714274
300.112392,76.570323,210.568389,9820.143950
300.114943,76.570323,172.283227,9762.716208
300.117495,76.570323,76.570323,9915.856854
300.120046,38.285162,210.568389,9915.856854
300.122597,76.570323,210.568389,9839.286531
300.125149,76.570323,172.283227,9820.143950
300.127700,76.570323,172.283227,9877.571693
300.130251,133.998066,172.283227,9820.143950
300.132802,19.142581,133.998066,9839.286531
300.135354,95.712904,172.283227,9762.716208
300.137905,57.427742,153.140646,9934.999435
300.140456,38.285162,133.998066,9877.571693
300.143008,57.427742,133.998066,9934.999435
300.145559,57.427742,133.998066,9973.284597
300.148110,57.427742,133.998066,9934.999435
300.150661,76.570323,172.283227,9762.716208
300.153223,76.570323,114.855485,9820.143950
300.155784,57.427742,114.855485,9858.429112
300.158346,95.712904,172.283227,9858.429112
300.160907,76.570323,229.710970,9839.286531
300.163468,76.570323,191.425808,9858.429112
300.166030,-19.142581,114.855485,9896.714274
300.168591,76.570323,76.570323,9915.856854
300.171153,38.285162,172.283227,9915.856854
300.173714,19.142581,172.283227,9858.429112
300.176275,57.427742,191.425808,9858.429112
300.178837,-19.142581,191.425808,9781.858789
300.181398,114.855485,114.855485,9762.716208
300.183960,76.570323,153.140646,9762.716208
300.186521,114.855485,114.855485,9801.001370
300.189082,76.570323,114.855485,9762.716208
300.191644,19.142581,153.140646,9801.001370
300.194205,76.570323,172.283227,9858.429112
300.196767,95.712904,133.998066,9934.999435
300.199328,95.712904,172.283227,9839.286531
300.201890,76.570323,210.568389,9801.001370
300.204451,57.427742,114.855485,9781.858789
300.207012,76.570323,114.855485,9762.716208
300.209574,133.998066,210.568389,9820.143950
300.212135,76.570323,229.710970,9877.571693
300.214697,114.855485,210.568389,9877.571693
300.217258,38.285162,133.998066,9877.571693
300.219819,38.285162,114.855485,9915.856854
300.222381,76.570323,210.568389,9801.001370
300.224942,76.570323,191.425808,9839.286531
300.227504,95.712904,287.138712,9781.858789
300.230065,95.712904,133.998066,9743.573627
300.232626,114.855485,172.283227,9801.001370
300.235188,114.855485,114.855485,9858.429112
300.237749,19.142581,191.425808,9858.429112
300.240311,19.142581,229.710970,9858.429112
300.242872,38.285162,229.710970,9896.714274
300.245433,114.855485,191.425808,9877.571693
300.247995,76.570323,172.283227,9858.429112
300.250556,133.998066,210.568389,9877.571693
300.253118,76.570323,210.568389,9820.143950
300.255686,19.142581,191.425808,9781.858789
300.258254,57.427742,153.140646,9934.999435
300.260823,76.570323,114.855485,9839.286531
300.263391,76.570323,191.425808,9820.143950
300.265959,76.570323,172.283227,9762.716208
300.268528,76.570323,153.140646,9877.571693
300.271096,95.712904,153.140646,9934.999435
300.273664,95.712904,191.425808,9801.001370
300.276233,95.712904,210.568389,9858.429112
300.278801,38.285162,76.570323,9762.716208
300.281369,57.427742,95.712904,9781.858789
300.283938,76.570323,114.855485,9839.286531
300.286506,19.142581,133.998066,9820.143950
300.289075,114.855485,172.283227,9877.571693
300.291643,76.570323,172.283227,9839.286531
300.294211,76.570323,172.283227,9801.001370
300.296780,19.142581,153.140646,9858.429112
300.299348,114.855485,191.425808,9762.716208
300.301916,76.570323,114.855485,9858.429112
300.304485,76.570323,172.283227,9801.001370
300.307053,114.855485,172.283227,9762.716208
300.309621,95.712904,172.283227,9820.143950
300.312190,57.427742,133.998066,9743.573627
300.314758,57.427742,172.283227,9877.571693
300.317326,57.427742,153.140646,9877.571693
300.319895,76.570323,172.283227,9858.429112
300.322463,38.285162,133.998066,9877.571693
300.325031,76.570323,210.568389,9839.286531
300.327600,114.855485,210.568389,9858.429112
300.330168,114.855485,114.855485,9762.716208
300.332737,76.570323,210.568389,9858.429112
300.335305,38.285162,172.283227,9896.714274
300.337873,114.855485,95.712904,9839.286531
300.340442,114.855485,114.855485,9858.429112
300.343010,19.142581,172.283227,9858.429112
300.345578,76.570323,114.855485,9762.716208
300.348147,76.570323,210.568389,9877.571693
300.350715,114.855485,172.283227,9858.429112
300.353283,76.570323,210.568389,9820.143950
300.355852,-0.000000,133.998066,9839.286531
300.358376,57.427742,95.712904,9801.001370
300.360901,114.855485,76.570323,9896.714274
300.363425,19.142581,133.998066,9839.286531
300.365950,76.570323,210.568389,9820.143950
300.368474,114.855485,191.425808,9801.001370
300.370999,76.570323,210.568389,9877.571693
300.373523,19.142581,191.425808,9896.714274
300.376048,76.570323,210.568389,9820.143950
300.378572,133.998066,229.710970,9877.571693
300.381097,76.570323,172.283227,9762.716208
300.383621,57.427742,95.712904,9801.001370
300.386146,114.855485,114.855485,9858.429112
300.388670,95.712904,210.568389,9877.571693
300.391195,95.712904,153.140646,9762.716208
300.393719,114.855485,210.568389,9877.571693
300.396244,19.142581,133.998066,9858.429112
300.398768,38.285162,229.710970,9781.858789
300.401293,57.427742,153.140646,9934.999435
300.403817,95.712904,172.283227,9839.286531
300.406342,153.140646,76.570323,9762.716208
300.408866,19.142581,191.425808,9858.429112
300.411391,76.570323,133.998066,9915.856854
300.413915,76.570323,191.425808,9801.001370
300.416440,76.570323,172.283227,9801.001370
300.418964,114.855485,191.425808,9839.286531
300.421489,76.570323,172.283227,9877.571693
300.424013,19.142581,153.140646,9820.143950
300.426538,153.140646,267.996131,9877.571693
300.429062,19.142581,191.425808,9781.858789
300.431587,95.712904,114.855485,9762.716208
300.434111,19.142581,133.998066,9801.001370
300.436636,57.427742,191.425808,9934.999435
300.439160,57.427742,153.140646,9934.999435
300.441685,19.142581,248.853550,9896.714274
300.444209,19.142581,191.425808,9896.714274
300.446734,57.427742,114.855485,9896.714274
300.449258,76.570323,172.283227,9858.429112
300.451783,95.712904,172.283227,9877.571693
300.454307,76.570323,172.283227,9762.716208
300.456831,76.570323,210.568389,9762.716208
300.459370,57.427742,172.283227,9973.284597
300.461909,114.855485,210.568389,9839.286531
300.464448,57.427742,210.568389,9934.999435
300.466986,38.285162,76.570323,9877.571693
300.469525,95.712904,133.998066,9934.999435
300.472064,95.712904,172.283227,9839.286531
300.474603,38.285162,248.853550,9877.571693
300.477141,76.570323,229.710970,9858.429112
300.479680,76.570323,172.283227,9762.716208
300.482219,114.855485,114.855485,9801.001370
300.484757,95.712904,76.570323,9896.714274
300.487296,114.855485,172.283227,9801.001370
300.489835,133.998066,153.140646,9858.429112
300.492374,38.285162,191.425808,9801.001370
300.494912,191.425808,172.283227,9877.571693
300.497451,76.570323,114.855485,9877.571693
300.499990,153.140646,133.998066,9839.286531
300.502529,76.570323,114.855485,9801.001370
300.505067,19.142581,153.140646,9839.286531
300.507606,19.142581,210.568389,9896.714274
300.510145,114.855485,114.855485,9839.286531
300.512683,114.855485,153.140646,9762.716208
300.515222,76.570323,172.283227,9858.429112
300.517761,95.712904,114.855485,9877.571693
300.520300,19.142581,95.712904,9934.999435
300.522838,76.570323,95.712904,9896.714274
300.525377,76.570323,229.710970,9858.429112
300.527916,76.570323,248.853550,9839.286531
300.530454,114.855485,210.568389,9820.143950
300.532993,19.142581,153.140646,9839.286531
300.535532,76.570323,38.285162,9896.714274
300.538071,57.427742,172.283227,9954.142016
300.540609,95.712904,191.425808,9877.571693
300.543148,76.570323,172.283227,9781.858789
300.545687,114.855485,114.855485,9877.571693
300.548226,95.712904,210.568389,9877.571693
300.550764,19.142581,153.140646,9839.286531
300.553303,19.142581,191.425808,9801.001370
300.555842,38.285162,76.570323,9801.001370
300.558380,38.285162,95.712904,9858.429112
300.560929,114.855485,191.425808,9762.716208
300.563478,57.427742,153.140646,9934.999435
300.566028,76.570323,172.283227,9820.143950
300.568577,19.142581,191.425808,9858.429112
300.571126,76.570323,210.568389,9877.571693
300.573675,76.570323,153.140646,9858.429112
300.576224,57.427742,114.855485,9839.286531
300.578773,95.712904,172.283227,9877.571693
300.581322,76.570323,210.568389,9858.429112
300.583871,114.855485,229.710970,9839.286531
300.586420,114.855485,172.283227,9820.143950
300.588969,114.855485,153.140646,9877.571693
300.591518,57.427742,133.998066,9934.999435
300.594067,114.855485,172.283227,9858.429112
300.596616,57.427742,114.855485,9858.429112
300.599165,57.427742,248.853550,9877.571693
300.601714,76.570323,229.710970,9858.429112
300.604263,19.142581,248.853550,9839.286531
300.606812,57.427742,210.568389,9724.431046
300.609361,76.570323,172.283227,9877.571693
300.611910,19.142581,191.425808,9801.001370
300.614459,76.570323,210.568389,9839.286531
300.617008,76.570323,210.568389,9839.286531
300.619557,95.712904,229.710970,9839.286531
300.622106,114.855485,229.710970,9858.429112
300.624656,114.855485,114.855485,9896.714274
300.627205,19.142581,191.425808,9839.286531
300.629754,76.570323,210.568389,9820.143950
300.632303,76.570323,153.140646,9801.001370
300.634852,76.570323,191.425808,9820.143950
300.637401,19.142581,210.568389,9896.714274
300.639950,114.855485,210.568389,9820.143950
300.642499,76.570323,191.425808,9858.429112
300.645048,76.570323,210.568389,9839.286531
300.647597,57.427742,114.855485,9801.001370
300.650146,76.570323,191.425808,9877.571693
300.652695,133.998066,172.283227,9820.143950
300.655244,19.142581,191.425808,9781.858789
300.657793,19.142581,191.425808,9781.858789
300.660342,38.285162,114.855485,9915.856854
300.662900,19.142581,153.140646,9896.714274
300.665458,19.142581,191.425808,9896.714274
300.668015,76.570323,210.568389,9820.143950
300.670572,38.285162,114.855485,9896.714274
300.673130,76.570323,76.570323,9915.856854
300.675687,76.570323,172.283227,9839.286531
300.678245,76.570323,210.568389,9877.571693
300.680802,76.570323,229.710970,9762.716208
300.683360,76.570323,172.283227,9858.429112
300.685917,153.140646,114.855485,9839.286531
300.688474,210.568389,133.998066,9801.001370
300.691032,172.283227,133.998066,9762.716208
300.693589,114.855485,114.855485,9877.571693
300.696147,57.427742,114.855485,9896.714274
300.698704,19.142581,191.425808,9896.714274
300.701262,38.285162,133.998066,9934.999435
300.703819,76.570323,114.855485,9877.571693
300.706376,114.855485,114.855485,9839.286531
300.708934,38.285162,133.998066,9839.286531
300.711491,114.855485,172.283227,9801.001370
300.714049,76.570323,172.283227,9839.286531
300.716606,133.998066,191.425808,9839.286531
300.719163,114.855485,191.425808,9762.716208
300.721721,-19.142581,133.998066,9858.429112
300.724278,57.427742,153.140646,9934.999435
300.726836,19.142581,153.140646,9839.286531
300.729393,19.142581,191.425808,9801.001370
300.731951,57.427742,95.712904,9781.858789
300.734508,19.142581,133.998066,9839.286531
300.737065,114.855485,153.140646,9839.286531
300.739623,76.570323,229.710970,9820.143950
300.742180,76.570323,210.568389,9801.001370
300.744738,76.570323,172.283227,9877.571693
300.747295,76.570323,172.283227,9877.571693
300.749853,19.142581,153.140646,9896.714274
300.752410,95.712904,114.855485,9858.429112
300.754967,114.855485,114.855485,9801.001370
300.757525,76.570323,114.855485,9877.571693
300.760082,19.142581,153.140646,9801.001370
300.762640,19.142581,267.996131,9820.143950
300.765203,76.570323,267.996131,9801.001370
300.767766,-0.000000,133.998066,9896.714274
300.770330,57.427742,95.712904,9896.714274
300.772893,57.427742,95.712904,9896.714274
300.775456,76.570323,229.710970,9858.429112
300.778019,76.570323,172.283227,9858.429112
300.780583,114.855485,95.712904,9781.858789
300.783146,76.570323,172.283227,9762.716208
300.785709,114.855485,153.140646,9877.571693
300.788272,95.712904,172.283227,9820.143950
300.790836,19.142581,191.425808,9896.714274
300.793399,76.570323,210.568389,9877.571693
300.795962,76.570323,153.140646,9877.571693
300.798525,76.570323,172.283227,9839.286531
300.801089,76.570323,210.568389,9858.429112
300.803652,76.570323,229.710970,9820.143950
300.806215,76.570323,153.140646,9839.286531
300.808779,76.570323,172.283227,9858.429112
300.811342,19.142581,153.140646,9839.286531
300.813905,19.142581,191.425808,9781.858789
300.816468,19.142581,172.283227,9896.714274
300.819032,76.570323,114.855485,9801.001370
300.821595,95.712904,210.568389,9934.999435
300.824158,19.142581,191.425808,9896.714274
300.826721,57.427742,191.425808,9858.429112
300.829285,76.570323,210.568389,9858.429112
300.831848,19.142581,210.568389,9801.001370
300.834411,95.712904,114.855485,9839.286531
300.836975,153.140646,172.283227,9820.143950
300.839538,57.427742,133.998066,9705.288466
300.842101,95.712904,287.138712,9896.714274
300.844664,38.285162,114.855485,9915.856854
300.847228,-0.000000,153.140646,9858.429112
300.849791,57.427742,287.138712,9896.714274
300.852354,76.570323,191.425808,9858.429112
300.854917,76.570323,153.140646,9820.143950
300.857481,76.570323,114.855485,9762.716208
300.860044,114.855485,210.568389,9801.001370
300.862607,95.712904,114.855485,9781.858789
300.865170,57.427742,133.998066,9877.571693
300.867738,57.427742,133.998066,9934.999435
300.870305,38.285162,133.998066,9877.571693
300.872872,57.427742,191.425808,9934.999435
300.875439,76.570323,153.140646,9762.716208
300.878006,95.712904,95.712904,9801.001370
300.880573,133.998066,76.570323,9915.856854
300.883140,133.998066,95.712904,9858.429112
300.885707,114.855485,210.568389,9877.571693
300.888274,-38.285162,267.996131,9820.143950
300.890841,76.570323,172.283227,9839.286531
300.893408,76.570323,76.570323,9973.284597
300.895975,95.712904,114.855485,9820.143950
300.898542,114.855485,114.855485,9877.571693
300.901110,76.570323,210.568389,9820.143950
300.903677,76.570323,172.283227,9839.286531
300.906244,76.570323,114.855485,9858.429112
300.908811,76.570323,172.283227,9820.143950
300.911378,19.142581,153.140646,9839.286531
300.913945,76.570323,172.283227,9820.143950
300.916512,57.427742,57.427742,9820.143950
300.919079,57.427742,114.855485,9820.143950
300.921646,76.570323,172.283227,9839.286531
300.924213,76.570323,114.855485,9839.286531
300.926780,191.425808,153.140646,9858.429112
300.929347,114.855485,114.855485,9858.429112
300.931914,114.855485,172.283227,9762.716208
300.934482,19.142581,133.998066,9781.858789
300.937049,76.570323,76.570323,9915.856854
300.939616,114.855485,172.283227,9858.429112
300.942183,114.855485,153.140646,9762.716208
300.944750,19.142581,153.140646,9858.429112
300.947317,19.142581,172.283227,9801.001370
300.949884,19.142581,153.140646,9896.714274
300.952451,57.427742,172.283227,9820.143950
300.955018,57.427742,248.853550,9820.143950
300.957585,19.142581,191.425808,9801.001370
300.960152,57.427742,114.855485,9839.286531
300.962719,76.570323,153.140646,9877.571693
300.965286,95.712904,172.283227,9858.429112
300.967854,57.427742,210.568389,9877.571693
300.970423,19.142581,191.425808,9839.286531
300.972992,-0.000000,191.425808,9781.858789
300.975561,57.427742,248.853550,9934.999435
300.978130,133.998066,153.140646,9858.429112
300.980699,95.712904,191.425808,9877.571693
300.983268,76.570323,114.855485,9858.429112
300.985837,76.570323,76.570323,9724.431046
300.988406,19.142581,153.140646,9820.143950
300.990975,95.712904,172.283227,9858.429112
300.993544,76.570323,172.283227,9801.001370
300.996114,19.142581,248.853550,9839.286531
300.998683,38.285162,133.998066,9877.571693
301.001252,76.570323,191.425808,9858.429112
301.003821,76.570323,172.283227,9820.143950
301.006390,172.283227,153.140646,9934.999435
301.008959,57.427742,153.140646,9762.716208
301.011528,19.142581,153.140646,9839.286531
301.014097,76.570323,153.140646,9839.286531
301.016666,-19.142581,210.568389,9801.001370
301.019235,95.712904,191.425808,9820.143950
301.021804,133.998066,191.425808,9877.571693
301.024374,76.570323,172.283227,9839.286531
301.026943,-38.285162,133.998066,9896.714274
301.029512,-0.000000,153.140646,9820.143950
301.032081,57.427742,229.710970,9801.001370
301.034650,19.142581,191.425808,9781.858789
301.037219,133.998066,210.568389,9858.429112
301.039788,76.570323,210.568389,9858.429112
301.042357,76.570323,210.568389,9762.716208
301.044926,76.570323,114.855485,9858.429112
301.047495,19.142581,191.425808,9801.001370
301.050065,19.142581,133.998066,9858.429112
301.052634,76.570323,172.283227,9762.716208
301.055203,-38.285162,153.140646,9820.143950
301.057772,-0.000000,153.140646,9896.714274
301.060341,57.427742,172.283227,9724.431046
301.062910,114.855485,95.712904,9781.858789
301.065479,133.998066,114.855485,9839.286531
301.068048,76.570323,210.568389,9762.716208
301.070617,38.285162,76.570323,9877.571693
301.073187,38.285162,172.283227,9973.284597
301.075757,57.427742,133.998066,9877.571693
301.078326,76.570323,153.140646,9877.571693
301.080896,114.855485,229.710970,9820.143950
301.083465,76.570323,153.140646,9762.716208
301.086035,57.427742,114.855485,9801.001370
301.088605,114.855485,57.427742,9896.714274
301.091174,95.712904,114.855485,9839.286531
301.093744,76.570323,210.568389,9858.429112
301.096314,19.142581,191.425808,9896.714274
301.098883,19.142581,153.140646,9896.714274
301.101453,38.285162,76.570323,9858.429112
301.104022,114.855485,114.855485,9820.143950
301.106592,38.285162,133.998066,9820.143950
301.109162,76.570323,229.710970,9762.716208
301.111731,19.142581,191.425808,9781.858789
301.114301,76.570323,114.855485,9820.143950
301.116871,38.285162,76.570323,9820.143950
301.119440,133.998066,153.140646,9839.286531
301.122010,76.570323,172.283227,9877.571693
301.124579,57.427742,172.283227,9934.999435
301.127149,38.285162,153.140646,9915.856854
301.129719,95.712904,153.140646,9934.999435
301.132288,76.570323,114.855485,9858.429112
301.134858,57.427742,172.283227,9934.999435
301.137428,114.855485,114.855485,9858.429112
301.139997,95.712904,114.855485,9801.001370
301.142567,76.570323,172.283227,9877.571693
301.145136,114.855485,153.140646,9877.571693
301.147706,76.570323,210.568389,9858.429112
301.150276,76.570323,133.998066,9896.714274
301.152845,76.570323,114.855485,9934.999435
301.155415,76.570323,172.283227,9839.286531
301.157985,95.712904,172.283227,9839.286531
301.160554,76.570323,153.140646,9762.716208
301.163124,114.855485,210.568389,9762.716208
301.165693,19.142581,191.425808,9896.714274
301.168263,133.998066,229.710970,9877.571693
301.170833,76.570323,191.425808,9915.856854
301.173402,19.142581,153.140646,9877.571693
301.175972,114.855485,114.855485,9858.429112
301.178541,76.570323,172.283227,9801.001370
301.181110,95.712904,210.568389,9820.143950
301.183679,57.427742,210.568389,9877.571693
301.186248,19.142581,210.568389,9781.858789
301.188817,76.570323,210.568389,9877.571693
301.191387,76.570323,153.140646,9877.571693
301.193956,76.570323,210.568389,9839.286531
301.196525,153.140646,114.855485,9858.429112
301.199094,76.570323,172.283227,9762.716208
301.201663,19.142581,133.998066,9858.429112
301.204233,76.570323,133.998066,9896.714274
301.206802,76.570323,172.283227,9858.429112
301.209371,57.427742,133.998066,9877.571693
301.211940,19.142581,210.568389,9801.001370
301.214509,38.285162,210.568389,9724.431046
301.217078,76.570323,172.283227,9839.286531
301.219648,76.570323,172.283227,9858.429112
301.222217,76.570323,114.855485,9877.571693
301.224786,76.570323,114.855485,9839.286531
301.227355,76.570323,172.283227,9858.429112
301.229924,76.570323,210.568389,9877.571693
301.232494,76.570323,210.568389,9877.571693
301.235063,76.570323,210.568389,9839.286531
301.237632,57.427742,172.283227,9877.571693
301.240201,95.712904,229.710970,9877.571693
301.242770,76.570323,210.568389,9801.001370
301.245340,57.427742,95.712904,9801.001370
301.247909,95.712904,95.712904,9896.714274
301.250478,95.712904,76.570323,9915.856854
301.253047,76.570323,172.283227,9877.571693
301.255616,19.142581,287.138712,9934.999435
301.258185,19.142581,248.853550,9896.714274
301.260755,76.570323,210.568389,9877.571693
301.263324,114.855485,153.140646,9801.001370
301.265893,76.570323,57.427742,9896.714274
301.268462,57.427742,95.712904,9801.001370
301.271031,95.712904,114.855485,9858.429112
301.273601,76.570323,229.710970,9762.716208
301.276170,76.570323,172.283227,9762.716208
301.278738,76.570323,210.568389,9915.856854
301.281306,95.712904,133.998066,9934.999435
301.283875,133.998066,114.855485,9839.286531
301.286443,114.855485,191.425808,9839.286531
301.289012,76.570323,172.283227,9762.716208
301.291580,114.855485,95.712904,9801.001370
301.294148,57.427742,95.712904,9858.429112
301.296717,95.712904,153.140646,9934.999435
301.299285,76.570323,114.855485,9877.571693
301.301853,57.427742,95.712904,9896.714274
301.304422,38.285162,153.140646,9915.856854
301.306990,-0.000000,248.853550,9839.286531
301.309559,76.570323,172.283227,9877.571693
301.312127,114.855485,95.712904,9858.429112
301.314695,76.570323,153.140646,9781.858789
301.317264,57.427742,191.425808,9934.999435
301.319832,57.427742,248.853550,9934.999435
301.322400,57.427742,229.710970,9839.286531
301.324969,76.570323,210.568389,9877.571693
301.327537,114.855485,114.855485,9896.714274
301.330105,57.427742,133.998066,9934.999435
301.332674,19.142581,172.283227,9858.429112
301.335242,38.285162,210.568389,9915.856854
301.337811,-38.285162,133.998066,9820.143950
301.340379,19.142581,153.140646,9896.714274
301.342947,57.427742,191.425808,9934.999435
301.345516,19.142581,248.853550,9839.286531
301.348084,57.427742,287.138712,9801.001370
301.350652,133.998066,153.140646,9820.143950
301.353221,19.142581,172.283227,9858.429112
301.355789,19.142581,95.712904,9877.571693
301.358358,76.570323,114.855485,9877.571693
301.360926,57.427742,287.138712,9839.286531
301.363494,19.142581,153.140646,9858.429112
301.366063,76.570323,191.425808,9820.143950
301.368631,95.712904,114.855485,9858.429112
301.371199,76.570323,153.140646,9877.571693
301.373768,76.570323,210.568389,9820.143950
301.376336,76.570323,172.283227,9877.571693
301.378905,57.427742,153.140646,9915.856854
301.381472,114.855485,210.568389,9934.999435
301.384039,57.427742,172.283227,9896.714274
301.386606,38.285162,210.568389,9724.431046
301.389174,57.427742,248.853550,9858.429112
301.391741,114.855485,172.283227,9762.716208
301.394308,133.998066,114.855485,9858.429112
301.396875,76.570323,172.283227,9839.286531
301.399443,95.712904,210.568389,9743.573627
301.402010,19.142581,153.140646,9839.286531
301.404577,57.427742,133.998066,9934.999435
301.407144,57.427742,248.853550,9934.999435
301.409712,-57.427742,267.996131,9896.714274
301.412279,19.142581,172.283227,9839.286531
301.414846,114.855485,191.425808,9839.286531
301.417413,-19.142581,172.283227,9781.858789
301.419981,114.855485,114.855485,9934.999435
301.422548,76.570323,114.855485,9820.143950
301.425115,-0.000000,191.425808,9858.429112
301.427682,38.285162,248.853550,9839.286531
301.430250,38.285162,114.855485,9915.856854
301.432817,153.140646,153.140646,9934.999435
301.435384,76.570323,210.568389,9820.143950
301.437951,57.427742,172.283227,9877.571693
301.440519,114.855485,153.140646,9801.001370
301.443086,76.570323,210.568389,9762.716208
301.445653,114.855485,114.855485,9877.571693
301.448220,57.427742,133.998066,9934.999435
301.450788,57.427742,248.853550,9877.571693
301.453355,57.427742,95.712904,9858.429112
301.455922,57.427742,153.140646,9877.571693
301.458489,76.570323,172.283227,9839.286531
301.461057,38.285162,229.710970,9915.856854
301.463624,57.427742,95.712904,9801.001370
301.466191,76.570323,191.425808,9820.143950
301.468758,95.712904,229.710970,9858.429112
301.471326,76.570323,114.855485,9839.286531
301.473893,114.855485,210.568389,9820.143950
301.476460,57.427742,114.855485,9858.429112
301.479027,95.712904,95.712904,9801.001370
301.481595,19.142581,133.998066,9858.429112
301.484121,19.142581,191.425808,9801.001370
301.486647,19.142581,153.140646,9801.001370
301.489173,38.285162,114.855485,9858.429112
301.491699,95.712904,95.712904,9896.714274
301.494226,19.142581,133.998066,9820.143950
301.496752,76.570323,153.140646,9762.716208
301.499278,76.570323,114.855485,9877.571693
301.501804,95.712904,153.140646,9877.571693
301.504330,76.570323,172.283227,9877.571693
301.506857,38.285162,172.283227,9915.856854
301.509383,19.142581,248.853550,9839.286531
301.511909,19.142581,133.998066,9781.858789
301.514435,133.998066,114.855485,9801.001370
301.516961,95.712904,114.855485,9762.716208
301.519487,38.285162,76.570323,9820.143950
301.522014,95.712904,287.138712,9801.001370
301.524540,57.427742,287.138712,9781.858789
301.527066,76.570323,153.140646,9877.571693
301.529592,114.855485,172.283227,9820.143950
301.532118,38.285162,133.998066,9839.286531
301.534644,76.570323,153.140646,9858.429112
301.537171,19.142581,210.568389,9896.714274
301.539697,19.142581,153.140646,9801.001370
301.542223,114.855485,210.568389,9762.716208
301.544749,19.142581,153.140646,9896.714274
301.547275,95.712904,172.283227,9839.286531
301.549802,57.427742,95.712904,9896.714274
301.552328,76.570323,210.568389,9839.286531
301.554854,19.142581,133.998066,9896.714274
301.557380,95.712904,133.998066,9877.571693
301.559906,57.427742,191.425808,9934.999435
301.562432,133.998066,210.568389,9762.716208
301.564959,95.712904,191.425808,9801.001370
301.567485,76.570323,172.283227,9762.716208
301.570011,19.142581,133.998066,9858.429112
301.572537,57.427742,114.855485,9896.714274
301.575063,19.142581,153.140646,9896.714274
301.577590,19.142581,153.140646,9858.429112
301.580116,76.570323,172.283227,9877.571693
301.582642,57.427742,153.140646,9877.571693
301.585176,76.570323,114.855485,9877.571693
301.587710,76.570323,229.710970,9820.143950
301.590244,95.712904,153.140646,9839.286531
301.592778,57.427742,153.140646,9762.716208
301.595312,19.142581,191.425808,9820.143950
301.597846,76.570323,172.283227,9801.001370
301.600380,76.570323,248.853550,9915.856854
301.602915,76.570323,229.710970,9858.429112
301.605449,19.142581,229.710970,9915.856854
301.607983,76.570323,210.568389,9858.429112
301.610517,57.427742,153.140646,9934.999435
301.613051,76.570323,114.855485,9801.001370
301.615585,95.712904,114.855485,9801.001370
301.618119,114.855485,172.283227,9820.143950
301.620653,114.855485,172.283227,9839.286531
301.623187,19.142581,191.425808,9896.714274
301.625721,19.142581,153.140646,9820.143950
301.628255,153.140646,153.140646,9877.571693
301.630789,95.712904,153.140646,9934.999435
301.633323,19.142581,210.568389,9839.286531
301.635858,133.998066,172.283227,9877.571693
301.638392,57.427742,229.710970,9801.001370
301.640926,133.998066,172.283227,9820.143950
301.643460,76.570323,172.283227,9858.429112
301.645994,76.570323,229.710970,9801.001370
301.648528,57.427742,172.283227,9877.571693
301.651062,76.570323,172.283227,9877.571693
301.653596,76.570323,172.283227,9877.571693
301.656130,-19.142581,153.140646,9858.429112
301.658664,38.285162,76.570323,9896.714274
301.661198,114.855485,191.425808,9858.429112
301.663732,76.570323,210.568389,9858.429112
301.666267,76.570323,191.425808,9762.716208
301.668801,95.712904,114.855485,9858.429112
301.671335,57.427742,95.712904,9896.714274
301.673869,57.427742,95.712904,9896.714274
301.676403,76.570323,172.283227,9801.001370
301.678937,153.140646,191.425808,9934.999435
301.681471,57.427742,191.425808,9877.571693
301.684005,19.142581,133.998066,9820.143950
301.686545,114.855485,153.140646,9934.999435
301.689085,38.285162,133.998066,9839.286531
301.691624,76.570323,172.283227,9762.716208
301.694163,172.283227,114.855485,9781.858789
301.696703,76.570323,153.140646,9858.429112
301.699242,76.570323,114.855485,9839.286531
301.701781,76.570323,114.855485,9877.571693
301.704321,76.570323,172.283227,9877.571693
301.706860,19.142581,133.998066,9839.286531
301.709399,76.570323,210.568389,9858.429112
301.711939,76.570323,153.140646,9877.571693
301.714478,38.285162,114.855485,9781.858789
301.717017,76.570323,172.283227,9820.143950
301.719557,114.855485,114.855485,9801.001370
301.722096,76.570323,114.855485,9877.571693
301.724636,114.855485,191.425808,9877.571693
301.727175,19.142581,172.283227,9820.143950
301.729714,76.570323,172.283227,9877.571693
301.732254,-19.142581,172.283227,9915.856854
301.734793,153.140646,287.138712,9781.858789
301.737332,57.427742,153.140646,9743.573627
301.739872,95.712904,172.283227,9877.571693
301.742411,57.427742,114.855485,9801.001370
301.744950,114.855485,133.998066,9934.999435
301.747490,114.855485,191.425808,9954.142016
301.750029,95.712904,210.568389,9762.716208
301.752568,19.142581,191.425808,9858.429112
301.755108,57.427742,114.855485,9896.714274
301.757647,57.427742,114.855485,9781.858789
301.760186,-57.427742,133.998066,9896.714274
301.762726,114.855485,210.568389,9762.716208
301.765265,76.570323,229.710970,9820.143950
301.767804,19.142581,191.425808,9858.429112
301.770344,114.855485,95.712904,9896.714274
301.772883,-19.142581,191.425808,9839.286531
301.775422,76.570323,229.710970,9877.571693
301.777962,114.855485,172.283227,9858.429112
301.780501,76.570323,114.855485,9820.143950
301.783040,-57.427742,172.283227,9915.856854
301.785580,114.855485,172.283227,9839.286531
301.788124,76.570323,172.283227,9839.286531
301.790668,114.855485,191.425808,9762.716208
301.793212,76.570323,210.568389,9820.143950
301.795756,19.142581,248.853550,9781.858789
301.798300,57.427742,133.998066,9934.999435
301.800844,19.142581,210.568389,9820.143950
301.803388,19.142581,133.998066,9781.858789
301.805932,19.142581,191.425808,9839.286531
301.808476,19.142581,191.425808,9896.714274
301.811020,95.712904,191.425808,9820.143950
301.813564,76.570323,210.568389,9820.143950
301.816108,114.855485,114.855485,9858.429112
301.818652,19.142581,172.283227,9858.429112
301.821197,19.142581,153.140646,9896.714274
301.823741,19.142581,191.425808,9896.714274
301.826285,76.570323,153.140646,9762.716208
301.828829,76.570323,114.855485,9858.429112
301.831373,76.570323,114.855485,9954.142016
301.833917,76.570323,210.568389,9839.286531
301.836461,76.570323,172.283227,9839.286531
301.839005,76.570323,153.140646,9858.429112
301.841549,19.142581,191.425808,9896.714274
301.844093,76.570323,133.998066,9896.714274
301.846637,76.570323,172.283227,9877.571693
301.849181,114.855485,172.283227,9858.429112
301.851725,133.998066,172.283227,9801.001370
301.854269,153.140646,153.140646,9877.571693
301.856813,19.142581,153.140646,9858.429112
301.859357,57.427742,210.568389,9934.999435
301.861902,114.855485,210.568389,9839.286531
301.864446,76.570323,172.283227,9762.716208
301.866990,114.855485,114.855485,9781.858789
301.869534,114.855485,95.712904,9820.143950
301.872078,76.570323,114.855485,9762.716208
301.874622,95.712904,172.283227,9820.143950
301.877166,19.142581,153.140646,9839.286531
301.879710,76.570323,191.425808,9877.571693
301.882254,76.570323,172.283227,9877.571693
301.884798,57.427742,229.710970,9839.286531
301.887342,114.855485,153.140646,9858.429112
301.889889,76.570323,114.855485,9877.571693
301.892435,19.142581,172.283227,9781.858789
301.894982,76.570323,153.140646,9801.001370
301.897529,114.855485,172.283227,9839.286531
301.900075,38.285162,267.996131,9820.143950
301.902622,95.712904,191.425808,9934.999435
301.905168,76.570323,229.710970,9839.286531
301.907715,95.712904,191.425808,9934.999435
301.910262,76.570323,153.140646,9858.429112
301.912808,76.570323,153.140646,9801.001370
301.915355,133.998066,172.283227,9839.286531
301.917901,76.570323,229.710970,9877.571693
301.920448,76.570323,210.568389,9858.429112
301.922995,76.570323,210.568389,9801.001370
301.925541,114.855485,114.855485,9858.429112
301.928088,76.570323,114.855485,9762.716208
301.930634,19.142581,133.998066,9896.714274
301.933181,76.570323,172.283227,9877.571693
301.935728,76.570323,133.998066,9896.714274
301.938274,19.142581,248.853550,9801.001370
301.940821,114.855485,287.138712,9762.716208
301.943367,76.570323,114.855485,9820.143950
