#time,accel_x,accel_y,accel_z
375.362496,57.427742,133.998066,9934.999435
375.365490,95.712904,172.283227,9801.001370
375.368483,133.998066,172.283227,9820.143950
375.371476,19.142581,133.998066,9820.143950
375.374470,76.570323,229.710970,9858.429112
375.377463,57.427742,287.138712,9820.143950
375.380457,95.712904,306.281293,9839.286531
375.383450,57.427742,287.138712,9839.286531
375.386443,76.570323,114.855485,9820.143950
375.389437,19.142581,172.283227,9801.001370
375.392430,19.142581,153.140646,9781.858789
375.395424,76.570323,172.283227,9877.571693
375.398417,114.855485,133.998066,9915.856854
375.401410,38.285162,76.570323,9820.143950
375.404404,19.142581,248.853550,9781.858789
375.407397,95.712904,325.423874,9915.856854
375.410390,153.140646,95.712904,9781.858789
375.413384,76.570323,76.570323,9705.288466
375.416377,114.855485,-19.142581,9820.143950
375.419371,133.998066,95.712904,9762.716208
375.422364,76.570323,191.425808,9762.716208
375.425357,95.712904,325.423874,9896.714274
375.428351,191.425808,306.281293,9877.571693
375.431344,133.998066,267.996131,9858.429112
375.434338,76.570323,76.570323,10011.569758
375.437331,114.855485,76.570323,9973.284597
375.440324,95.712904,210.568389,9858.429112
375.442697,19.142581,210.568389,9839.286531
375.445070,57.427742,191.425808,9992.427178
375.447443,76.570323,153.140646,9839.286531
375.449815,19.142581,153.140646,9896.714274
375.452188,76.570323,210.568389,9762.716208
375.454561,38.285162,114.855485,9705.288466
375.456934,114.855485,172.283227,9743.573627
375.459306,76.570323,114.855485,9820.143950
375.461679,38.285162,133.998066,9762.716208
375.464052,95.712904,76.570323,9686.145885
375.466425,95.712904,210.568389,9820.143950
375.468797,114.855485,210.568389,9877.571693
375.471170,57.427742,191.425808,9934.999435
375.473543,95.712904,133.998066,9915.856854
375.475915,57.427742,133.998066,10011.569758
375.478288,57.427742,153.140646,9934.999435
375.480661,57.427742,248.853550,9934.999435
375.483034,76.570323,172.283227,9877.571693
375.485406,114.855485,191.425808,9877.571693
375.487779,19.142581,172.283227,9858.429112
375.490152,76.570323,172.283227,9877.571693
375.492525,76.570323,210.568389,9858.429112
375.494897,76.570323,229.710970,9820.143950
375.497270,153.140646,153.140646,9743.573627
375.499643,114.855485,229.710970,9820.143950
375.502016,191.425808,95.712904,9743.573627
375.504388,95.712904,76.570323,9896.714274
375.506761,76.570323,114.855485,9839.286531
375.509134,57.427742,95.712904,9801.001370
375.511506,19.142581,210.568389,9839.286531
375.513879,76.570323,172.283227,9820.143950
375.516252,38.285162,76.570323,9877.571693
375.518625,19.142581,153.140646,9801.001370
375.520997,76.570323,172.283227,9762.716208
375.523370,76.570323,210.568389,9801.001370
375.525743,95.712904,133.998066,9896.714274
375.528116,114.855485,172.283227,9858.429112
375.530488,133.998066,172.283227,9877.571693
375.532861,95.712904,229.710970,9858.429112
375.535234,133.998066,191.425808,9820.143950
375.537744,57.427742,191.425808,9934.999435
375.540255,57.427742,133.998066,9934.999435
375.542765,19.142581,172.283227,9896.714274
375.545276,114.855485,210.568389,9954.142016
375.547786,57.427742,191.425808,9877.571693
375.550297,114.855485,172.283227,9839.286531
375.552808,19.142581,133.998066,9839.286531
375.555318,76.570323,210.568389,9820.143950
375.557829,19.142581,248.853550,9781.858789
375.560339,19.142581,172.283227,9762.716208
375.562850,19.142581,133.998066,9820.143950
375.565360,57.427742,76.570323,9820.143950
375.567871,153.140646,95.712904,9820.143950
375.570381,76.570323,114.855485,9820.143950
375.572892,95.712904,172.283227,9820.143950
375.575402,95.712904,191.425808,9934.999435
375.577913,76.570323,191.425808,9858.429112
375.580423,133.998066,229.710970,9762.716208
375.582934,76.570323,267.996131,9896.714274
375.585444,57.427742,133.998066,9934.999435
375.587955,57.427742,95.712904,9858.429112
375.590465,133.998066,76.570323,9973.284597
375.592976,76.570323,114.855485,10068.997501
375.595486,114.855485,306.281293,9839.286531
375.597997,38.285162,325.423874,9839.286531
375.600508,153.140646,287.138712,9896.714274
375.603018,114.855485,191.425808,9762.716208
375.605529,19.142581,0.000000,9705.288466
375.608039,19.142581,95.712904,9973.284597
375.610550,-0.000000,133.998066,9820.143950
375.613060,-133.998066,210.568389,9686.145885
375.615571,38.285162,401.994197,9954.142016
375.618081,57.427742,287.138712,9781.858789
375.620592,-210.568389,114.855485,9590.432981
375.623102,133.998066,76.570323,9915.856854
375.625613,57.427742,153.140646,9743.573627
375.628123,-38.285162,153.140646,9724.431046
375.630634,153.140646,210.568389,10068.997501
375.633144,-0.000000,210.568389,9915.856854
375.635655,38.285162,287.138712,9724.431046
375.638216,382.851616,172.283227,9992.427178
375.640776,153.140646,191.425808,10049.854920
375.643337,76.570323,229.710970,9839.286531
375.645898,95.712904,191.425808,9954.142016
375.648458,76.570323,229.710970,9858.429112
375.651019,76.570323,229.710970,9762.716208
375.653580,248.853550,114.855485,9896.714274
375.656140,114.855485,95.712904,9781.858789
375.658701,-57.427742,248.853550,9781.858789
375.661262,57.427742,133.998066,9973.284597
375.663822,19.142581,153.140646,9781.858789
375.666383,-0.000000,191.425808,9858.429112
375.668944,248.853550,57.427742,9743.573627
375.671505,133.998066,133.998066,9667.003304
375.674065,-76.570323,153.140646,9915.856854
375.676626,153.140646,95.712904,9781.858789
375.679187,114.855485,172.283227,9781.858789
375.681747,38.285162,344.566454,9877.571693
375.684308,287.138712,76.570323,9858.429112
375.686869,95.712904,229.710970,9762.716208
375.689429,-57.427742,287.138712,10049.854920
375.691990,191.425808,95.712904,9954.142016
375.694551,153.140646,229.710970,9781.858789
375.697111,38.285162,325.423874,9877.571693
375.699672,210.568389,76.570323,9820.143950
375.702233,114.855485,172.283227,9820.143950
375.704793,38.285162,287.138712,9915.856854
375.707354,153.140646,57.427742,9896.714274
375.709915,-19.142581,229.710970,9724.431046
375.712476,153.140646,133.998066,9973.284597
375.715036,38.285162,76.570323,9839.286531
375.717597,19.142581,76.570323,9724.431046
375.720158,172.283227,19.142581,9896.714274
375.722718,-57.427742,133.998066,9858.429112
375.725279,57.427742,153.140646,9686.145885
375.727840,153.140646,114.855485,9839.286531
375.730400,19.142581,191.425808,9858.429112
375.732961,-19.142581,76.570323,9820.143950
375.735522,172.283227,133.998066,9934.999435
375.738082,19.142581,95.712904,9973.284597
375.740657,-95.712904,153.140646,9781.858789
375.743231,172.283227,191.425808,9915.856854
375.745805,76.570323,191.425808,9877.571693
375.748379,-133.998066,267.996131,9934.999435
375.750953,172.283227,133.998066,9934.999435
375.753527,153.140646,114.855485,9896.714274
375.756101,76.570323,267.996131,9915.856854
375.758675,267.996131,38.285162,9762.716208
375.761249,191.425808,267.996131,9839.286531
375.763824,-114.855485,248.853550,9896.714274
375.766398,267.996131,76.570323,9820.143950
375.768972,76.570323,153.140646,9781.858789
375.771546,-57.427742,229.710970,9858.429112
375.774120,153.140646,76.570323,9686.145885
375.776694,76.570323,229.710970,9686.145885
375.779268,-19.142581,287.138712,9954.142016
375.781842,133.998066,57.427742,9724.431046
375.784416,114.855485,153.140646,9667.003304
375.786990,-0.000000,267.996131,9877.571693
375.789565,172.283227,95.712904,9781.858789
375.792139,95.712904,306.281293,9839.286531
375.794713,19.142581,306.281293,9992.427178
375.797287,95.712904,95.712904,9896.714274
375.799861,153.140646,248.853550,9667.003304
375.802435,114.855485,191.425808,9934.999435
375.805009,76.570323,191.425808,9820.143950
375.807583,-0.000000,191.425808,9781.858789
375.810157,133.998066,267.996131,10011.569758
375.812732,-19.142581,210.568389,9915.856854
375.815306,57.427742,248.853550,9686.145885
375.817880,172.283227,210.568389,9915.856854
375.820454,95.712904,95.712904,9801.001370
375.823028,-19.142581,229.710970,9781.858789
375.825602,114.855485,133.998066,10011.569758
375.828176,-95.712904,210.568389,9839.286531
375.830750,-19.142581,210.568389,9724.431046
375.833324,287.138712,153.140646,9896.714274
375.835898,95.712904,153.140646,9801.001370
375.838473,-0.000000,172.283227,9781.858789
375.841047,210.568389,210.568389,9896.714274
375.843619,57.427742,153.140646,9934.999435
375.846192,19.142581,306.281293,9743.573627
375.848764,229.710970,76.570323,9858.429112
375.851336,95.712904,267.996131,9705.288466
375.853909,38.285162,325.423874,9877.571693
375.856481,248.853550,95.712904,9934.999435
375.859054,133.998066,248.853550,9877.571693
375.861626,-0.000000,229.710970,9915.856854
375.864199,172.283227,57.427742,9781.858789
375.866771,19.142581,248.853550,9820.143950
375.869343,38.285162,229.710970,10030.712339
375.871916,153.140646,76.570323,9801.001370
375.874488,153.140646,248.853550,9762.716208
375.877061,-76.570323,248.853550,9839.286531
375.879633,153.140646,76.570323,9820.143950
375.882206,57.427742,153.140646,9743.573627
375.884778,38.285162,133.998066,9954.142016
375.887350,57.427742,57.427742,9839.286531
375.889923,114.855485,210.568389,9762.716208
375.892495,-0.000000,248.853550,9839.286531
375.895068,57.427742,95.712904,9781.858789
375.897640,114.855485,76.570323,9724.431046
375.900212,229.710970,114.855485,9954.142016
375.902785,57.427742,133.998066,9934.999435
375.905357,-38.285162,210.568389,9801.001370
375.907930,95.712904,133.998066,9992.427178
375.910502,-0.000000,210.568389,9896.714274
375.913075,-0.000000,133.998066,9781.858789
375.915647,191.425808,76.570323,10011.569758
375.918219,76.570323,76.570323,9915.856854
375.920792,-57.427742,191.425808,9762.716208
375.923364,172.283227,133.998066,9934.999435
375.925937,76.570323,287.138712,9858.429112
375.928509,-0.000000,210.568389,9781.858789
375.931082,267.996131,95.712904,9973.284597
375.933654,57.427742,133.998066,9934.999435
375.936226,-95.712904,133.998066,9724.431046
375.938799,153.140646,114.855485,9743.573627
375.941371,57.427742,229.710970,9781.858789
375.943944,-38.285162,210.568389,9801.001370
375.946510,191.425808,57.427742,9877.571693
375.949075,95.712904,172.283227,9934.999435
375.951641,-95.712904,172.283227,9877.571693
375.954207,191.425808,172.283227,9781.858789
375.956773,133.998066,172.283227,9743.573627
375.959339,-0.000000,229.710970,10030.712339
375.961904,210.568389,38.285162,9877.571693
375.964470,76.570323,229.710970,9762.716208
375.967036,-76.570323,172.283227,9915.856854
375.969602,267.996131,76.570323,9820.143950
375.972168,133.998066,172.283227,9762.716208
375.974734,-133.998066,248.853550,9934.999435
375.977299,153.140646,95.712904,9896.714274
375.979865,19.142581,172.283227,9781.858789
375.982431,38.285162,248.853550,9877.571693
375.984997,172.283227,133.998066,9877.571693
375.987563,76.570323,191.425808,9801.001370
375.990128,57.427742,191.425808,9973.284597
375.992694,-19.142581,153.140646,9839.286531
375.995260,19.142581,172.283227,9686.145885
375.997826,191.425808,210.568389,9934.999435
376.000392,57.427742,133.998066,9934.999435
376.002958,-57.427742,210.568389,9724.431046
376.005523,133.998066,191.425808,9973.284597
376.008089,-76.570323,191.425808,9934.999435
376.010655,-19.142581,153.140646,9705.288466
376.013221,229.710970,191.425808,9877.571693
376.015787,19.142581,191.425808,9896.714274
376.018352,-57.427742,248.853550,9801.001370
376.020918,153.140646,153.140646,9992.427178
376.023484,38.285162,172.283227,9915.856854
376.026050,-19.142581,210.568389,9724.431046
376.028616,229.710970,172.283227,9915.856854
376.031182,38.285162,267.996131,9820.143950
376.033747,-19.142581,325.423874,9896.714274
376.036313,153.140646,95.712904,9896.714274
376.038879,19.142581,248.853550,9781.858789
376.041445,38.285162,210.568389,9781.858789
376.044011,210.568389,133.998066,9781.858789
376.046576,114.855485,210.568389,9801.001370
376.049134,-19.142581,287.138712,10049.854920
376.051691,57.427742,114.855485,9801.001370
376.054248,76.570323,325.423874,9628.718142
376.056805,38.285162,267.996131,9858.429112
376.059362,267.996131,38.285162,9820.143950
376.061919,76.570323,114.855485,9762.716208
376.064476,-38.285162,229.710970,9934.999435
376.067033,114.855485,114.855485,9820.143950
376.069590,153.140646,191.425808,9686.145885
376.072147,19.142581,153.140646,9896.714274
376.074705,172.283227,38.285162,9820.143950
376.077262,38.285162,229.710970,9705.288466
376.079819,76.570323,210.568389,10068.997501
376.082376,19.142581,133.998066,9896.714274
376.084933,57.427742,172.283227,9647.860723
376.087490,191.425808,172.283227,10011.569758
376.090047,38.285162,76.570323,9762.716208
376.092604,-19.142581,114.855485,9801.001370
376.095161,114.855485,210.568389,10126.425243
376.097718,38.285162,191.425808,9915.856854
376.100276,19.142581,210.568389,9590.432981
376.102833,191.425808,172.283227,9877.571693
376.105390,114.855485,114.855485,9781.858789
376.107947,-95.712904,57.427742,9705.288466
376.110504,57.427742,133.998066,9992.427178
376.113061,-57.427742,210.568389,9896.714274
376.115618,-133.998066,248.853550,9705.288466
376.118175,191.425808,248.853550,10011.569758
376.120732,38.285162,210.568389,9915.856854
376.123290,-0.000000,95.712904,9743.573627
376.125847,229.710970,0.000000,9915.856854
376.128404,19.142581,153.140646,9781.858789
376.130961,-0.000000,229.710970,9801.001370
376.133518,287.138712,114.855485,9896.714274
376.136075,57.427742,191.425808,9743.573627
376.138632,38.285162,210.568389,9973.284597
376.141189,210.568389,95.712904,9973.284597
376.143746,19.142581,229.710970,9647.860723
376.146303,19.142581,191.425808,9896.714274
376.148861,287.138712,76.570323,9858.429112
376.151419,57.427742,172.283227,9667.003304
376.153970,38.285162,210.568389,10011.569758
376.156521,191.425808,153.140646,9820.143950
376.159072,76.570323,229.710970,9762.716208
376.161624,-19.142581,306.281293,10011.569758
376.164175,153.140646,172.283227,9915.856854
376.166726,76.570323,172.283227,9571.290400
376.169278,95.712904,172.283227,10126.425243
376.171829,76.570323,172.283227,9877.571693
376.174380,57.427742,95.712904,9781.858789
376.176931,229.710970,229.710970,10107.282662
376.179483,-0.000000,191.425808,9762.716208
376.182034,-57.427742,153.140646,9667.003304
376.184585,191.425808,172.283227,10164.710405
376.187137,57.427742,114.855485,9781.858789
376.189688,-0.000000,95.712904,9647.860723
376.192239,153.140646,133.998066,9973.284597
376.194790,19.142581,248.853550,9781.858789
376.197342,57.427742,287.138712,9858.429112
376.199893,172.283227,229.710970,10088.140082
376.202444,-95.712904,191.425808,9781.858789
376.204996,-19.142581,172.283227,9724.431046
376.207547,229.710970,172.283227,9954.142016
376.210098,76.570323,172.283227,9858.429112
376.212650,-0.000000,153.140646,9896.714274
376.215201,191.425808,133.998066,9896.714274
376.217752,-19.142581,248.853550,9705.288466
376.220303,-38.285162,191.425808,9915.856854
376.222855,172.283227,114.855485,9915.856854
376.225406,-0.000000,229.710970,9724.431046
376.227957,-95.712904,267.996131,10011.569758
376.230509,153.140646,229.710970,9781.858789
376.233060,57.427742,172.283227,9667.003304
376.235611,-0.000000,172.283227,10049.854920
376.238162,229.710970,38.285162,9820.143950
376.240714,76.570323,248.853550,9724.431046
376.243265,-57.427742,344.566454,10049.854920
376.245816,229.710970,114.855485,9896.714274
376.248368,19.142581,248.853550,9705.288466
376.250919,-0.000000,172.283227,10030.712339
376.253350,153.140646,0.000000,9781.858789
376.255781,114.855485,95.712904,9743.573627
376.258212,76.570323,267.996131,10049.854920
376.260643,38.285162,153.140646,9877.571693
376.263075,57.427742,210.568389,9762.716208
376.265506,57.427742,172.283227,9915.856854
376.267937,-19.142581,76.570323,9762.716208
376.270368,57.427742,133.998066,9686.145885
376.272799,210.568389,210.568389,10068.997501
376.275230,-0.000000,133.998066,9781.858789
376.277661,-0.000000,38.285162,9686.145885
376.280093,133.998066,210.568389,9992.427178
376.282524,-0.000000,172.283227,9896.714274
376.284955,57.427742,133.998066,9743.573627
376.287386,306.281293,248.853550,10030.712339
376.289817,19.142581,153.140646,9781.858789
376.292248,76.570323,76.570323,9667.003304
376.294679,344.566454,38.285162,10030.712339
376.297110,38.285162,95.712904,9858.429112
376.299542,-76.570323,76.570323,9896.714274
376.301973,229.710970,229.710970,10011.569758
376.304404,-19.142581,172.283227,9781.858789
376.306835,19.142581,153.140646,9896.714274
376.309266,344.566454,95.712904,9820.143950
376.311697,19.142581,153.140646,9781.858789
376.314128,38.285162,210.568389,10011.569758
376.316560,114.855485,153.140646,9877.571693
376.318991,-95.712904,191.425808,9781.858789
376.321422,-57.427742,248.853550,9896.714274
376.323853,287.138712,57.427742,9801.001370
376.326284,76.570323,191.425808,9724.431046
376.328715,38.285162,229.710970,9915.856854
376.331146,267.996131,76.570323,9762.716208
376.333578,19.142581,172.283227,9724.431046
376.336009,38.285162,287.138712,10088.140082
376.338440,210.568389,133.998066,9762.716208
376.340871,38.285162,210.568389,9705.288466
376.343302,-0.000000,229.710970,10011.569758
376.345733,153.140646,95.712904,9820.143950
376.348164,114.855485,76.570323,9705.288466
376.350627,229.710970,267.996131,10126.425243
376.353090,76.570323,172.283227,9762.716208
376.355552,-19.142581,172.283227,9781.858789
376.358015,191.425808,229.710970,10088.140082
376.360478,76.570323,172.283227,9820.143950
376.362940,76.570323,76.570323,9667.003304
376.365403,191.425808,191.425808,9992.427178
376.367866,76.570323,210.568389,9762.716208
376.370329,19.142581,191.425808,9801.001370
376.372791,153.140646,306.281293,10088.140082
376.375254,-133.998066,210.568389,9724.431046
376.377717,-0.000000,153.140646,9724.431046
376.380179,248.853550,114.855485,9954.142016
376.382642,-0.000000,133.998066,9781.858789
376.385105,38.285162,210.568389,9724.431046
376.387567,267.996131,191.425808,10011.569758
376.390030,-38.285162,153.140646,9820.143950
376.392493,38.285162,133.998066,9896.714274
376.394955,229.710970,153.140646,9801.001370
376.397418,-19.142581,325.423874,9686.145885
376.399881,19.142581,153.140646,9896.714274
376.402344,172.283227,38.285162,9992.427178
376.404806,-0.000000,191.425808,9820.143950
376.407269,-95.712904,287.138712,9954.142016
376.409732,248.853550,133.998066,9781.858789
376.412194,19.142581,267.996131,9647.860723
376.414657,-0.000000,248.853550,9992.427178
376.417120,229.710970,95.712904,9896.714274
376.419582,76.570323,172.283227,9686.145885
376.422045,-19.142581,248.853550,9954.142016
376.424508,172.283227,153.140646,9686.145885
376.426970,19.142581,287.138712,9628.718142
376.429433,-38.285162,287.138712,10049.854920
376.431896,229.710970,57.427742,9934.999435
376.434358,57.427742,191.425808,9743.573627
376.436821,229.710970,248.853550,9992.427178
376.439284,114.855485,133.998066,9686.145885
376.441747,76.570323,133.998066,9609.575562
376.444209,191.425808,210.568389,10107.282662
376.446672,76.570323,114.855485,9858.429112
376.449156,19.142581,95.712904,9705.288466
376.451641,95.712904,229.710970,10107.282662
376.454125,76.570323,229.710970,9762.716208
376.456609,95.712904,133.998066,9743.573627
376.459094,153.140646,172.283227,10068.997501
376.461578,-19.142581,76.570323,9820.143950
376.464062,-19.142581,76.570323,9820.143950
376.466547,191.425808,172.283227,9954.142016
376.469031,-0.000000,229.710970,9667.003304
376.471516,-19.142581,210.568389,9686.145885
376.474000,191.425808,114.855485,10049.854920
376.476484,38.285162,38.285162,9858.429112
376.478969,-57.427742,133.998066,9781.858789
376.481453,306.281293,153.140646,9801.001370
376.483937,38.285162,287.138712,9647.860723
376.486422,-76.570323,76.570323,9896.714274
376.488906,210.568389,95.712904,9992.427178
376.491390,38.285162,172.283227,9724.431046
376.493875,-0.000000,172.283227,10030.712339
376.496359,210.568389,153.140646,9896.714274
376.498844,57.427742,248.853550,9743.573627
376.501328,-57.427742,267.996131,9877.571693
376.503812,382.851616,57.427742,9896.714274
376.506297,38.285162,114.855485,9724.431046
376.508781,-0.000000,210.568389,9973.284597
376.511265,153.140646,95.712904,9839.286531
376.513750,19.142581,306.281293,9628.718142
376.516234,57.427742,248.853550,10049.854920
376.518718,210.568389,57.427742,9934.999435
376.521203,57.427742,133.998066,9686.145885
376.523687,-95.712904,153.140646,9915.856854
376.526172,76.570323,114.855485,9743.573627
376.528656,38.285162,210.568389,9686.145885
376.531140,57.427742,229.710970,10145.567824
376.533625,-0.000000,153.140646,9781.858789
376.536109,95.712904,133.998066,9667.003304
376.538593,133.998066,210.568389,10068.997501
376.541078,114.855485,133.998066,9647.860723
376.543562,57.427742,133.998066,9628.718142
376.546046,153.140646,229.710970,10030.712339
376.548545,57.427742,95.712904,9801.001370
376.551045,-0.000000,172.283227,9686.145885
376.553544,153.140646,248.853550,10049.854920
376.556043,95.712904,153.140646,9705.288466
376.558542,95.712904,191.425808,9686.145885
376.561041,191.425808,210.568389,10068.997501
376.563540,-38.285162,210.568389,9762.716208
376.566039,-19.142581,114.855485,9724.431046
376.568538,229.710970,153.140646,9915.856854
376.571037,19.142581,191.425808,9705.288466
376.573536,-0.000000,153.140646,9992.427178
376.576035,306.281293,153.140646,9896.714274
376.578534,19.142581,191.425808,9781.858789
376.581033,-38.285162,248.853550,9877.571693
376.583532,248.853550,153.140646,9896.714274
376.586031,57.427742,191.425808,9667.003304
376.588530,19.142581,153.140646,9896.714274
376.591029,153.140646,133.998066,9877.571693
376.593528,-19.142581,229.710970,9686.145885
376.596027,-38.285162,267.996131,9973.284597
376.598526,287.138712,76.570323,9858.429112
376.601025,-95.712904,229.710970,9686.145885
376.603524,-57.427742,191.425808,10107.282662
376.606023,76.570323,114.855485,9877.571693
376.608522,-19.142581,172.283227,9609.575562
376.611021,38.285162,229.710970,9973.284597
376.613520,191.425808,133.998066,9801.001370
376.616019,76.570323,248.853550,9743.573627
376.618518,153.140646,210.568389,10126.425243
376.621017,57.427742,114.855485,9781.858789
376.623516,57.427742,133.998066,9647.860723
376.626015,191.425808,172.283227,10068.997501
376.628514,114.855485,133.998066,9743.573627
376.631013,38.285162,153.140646,9686.145885
376.633512,95.712904,229.710970,10068.997501
376.636011,76.570323,76.570323,9781.858789
376.638510,76.570323,114.855485,9762.716208
376.641009,191.425808,153.140646,10030.712339
376.643509,38.285162,114.855485,9647.860723
376.646008,76.570323,76.570323,9667.003304
376.648516,133.998066,229.710970,10164.710405
376.651025,76.570323,210.568389,9762.716208
376.653534,19.142581,76.570323,9781.858789
376.656043,191.425808,325.423874,9973.284597
376.658551,114.855485,172.283227,9705.288466
376.661060,-19.142581,114.855485,9915.856854
376.663569,267.996131,210.568389,9915.856854
376.666078,-38.285162,153.140646,9781.858789
376.668587,-57.427742,38.285162,9839.286531
376.671095,287.138712,114.855485,9954.142016
376.673604,38.285162,210.568389,9724.431046
376.676113,38.285162,210.568389,10088.140082
376.678622,172.283227,114.855485,10011.569758
376.681130,38.285162,172.283227,9667.003304
376.683639,-19.142581,153.140646,9915.856854
376.686148,248.853550,133.998066,9896.714274
376.688657,76.570323,133.998066,9609.575562
376.691165,-38.285162,210.568389,9992.427178
376.693674,191.425808,95.712904,9934.999435
376.696183,57.427742,153.140646,9686.145885
376.698692,-76.570323,229.710970,9992.427178
376.701201,191.425808,172.283227,9801.001370
376.703709,76.570323,229.710970,9571.290400
376.706218,57.427742,287.138712,10164.710405
376.708727,57.427742,95.712904,9781.858789
376.711236,-76.570323,114.855485,9724.431046
376.713744,133.998066,287.138712,10126.425243
376.716253,114.855485,114.855485,9801.001370
376.718762,38.285162,114.855485,9609.575562
376.721271,153.140646,229.710970,10164.710405
376.723780,-0.000000,114.855485,9762.716208
376.726288,57.427742,133.998066,9686.145885
376.728797,153.140646,287.138712,10030.712339
376.731306,76.570323,229.710970,9801.001370
376.733815,38.285162,210.568389,9609.575562
376.736323,114.855485,191.425808,10049.854920
376.738832,-0.000000,114.855485,9954.142016
376.741341,114.855485,248.853550,9667.003304
376.743850,76.570323,248.853550,9915.856854
376.746358,95.712904,267.996131,9915.856854
376.748874,19.142581,191.425808,9801.001370
376.751389,153.140646,210.568389,10049.854920
376.753904,57.427742,287.138712,9896.714274
376.756419,19.142581,306.281293,9647.860723
376.758934,153.140646,229.710970,9781.858789
376.761449,76.570323,133.998066,9801.001370
376.763965,114.855485,-19.142581,9820.143950
376.766480,114.855485,19.142581,9915.856854
376.768995,57.427742,114.855485,9896.714274
376.771510,172.283227,363.709035,9896.714274
376.774025,57.427742,401.994197,9896.714274
376.776540,172.283227,267.996131,9762.716208
376.779055,76.570323,-19.142581,9877.571693
376.781571,57.427742,-38.285162,10030.712339
376.784086,133.998066,38.285162,9973.284597
376.786601,38.285162,133.998066,9820.143950
376.789116,76.570323,287.138712,9781.858789
376.791631,114.855485,306.281293,9839.286531
376.794146,38.285162,0.000000,9992.427178
376.796662,76.570323,76.570323,9915.856854
376.799177,76.570323,76.570323,9915.856854
376.801692,38.285162,172.283227,9915.856854
376.804207,153.140646,210.568389,9762.716208
376.806722,95.712904,38.285162,9820.143950
376.809237,76.570323,38.285162,9973.284597
376.811752,172.283227,76.570323,9762.716208
376.814268,76.570323,229.710970,9762.716208
376.816783,38.285162,287.138712,9915.856854
376.819298,19.142581,191.425808,9781.858789
376.821813,19.142581,0.000000,9686.145885
376.824328,114.855485,19.142581,9915.856854
376.826843,114.855485,76.570323,9724.431046
376.829359,76.570323,114.855485,9820.143950
376.831874,57.427742,306.281293,10107.282662
376.834389,57.427742,325.423874,9781.858789
376.836904,38.285162,76.570323,9820.143950
376.839419,172.283227,172.283227,9954.142016
376.841934,-0.000000,76.570323,9762.716208
376.844449,114.855485,-19.142581,9820.143950
376.846965,133.998066,382.851616,9973.284597
376.849484,-95.712904,229.710970,9915.856854
376.852004,133.998066,133.998066,9934.999435
376.854523,19.142581,287.138712,9992.427178
376.857043,-76.570323,172.283227,9705.288466
376.859562,153.140646,95.712904,9801.001370
376.862082,114.855485,325.423874,9915.856854
376.864601,-0.000000,229.710970,9686.145885
376.867121,153.140646,57.427742,9839.286531
376.869640,114.855485,248.853550,9954.142016
376.872160,-133.998066,248.853550,9686.145885
376.874680,133.998066,114.855485,9858.429112
376.877199,172.283227,401.994197,9915.856854
376.879719,-19.142581,191.425808,9781.858789
376.882238,114.855485,95.712904,9858.429112
376.884758,95.712904,229.710970,9839.286531
376.887277,-38.285162,248.853550,9839.286531
376.889797,38.285162,210.568389,9934.999435
376.892316,153.140646,287.138712,9820.143950
376.894836,19.142581,267.996131,9781.858789
376.897355,76.570323,172.283227,9934.999435
376.899875,38.285162,172.283227,9743.573627
376.902394,-0.000000,210.568389,9915.856854
376.904914,95.712904,191.425808,10068.997501
376.907433,133.998066,229.710970,9762.716208
376.909953,19.142581,191.425808,9781.858789
376.912473,153.140646,153.140646,9954.142016
376.914992,57.427742,153.140646,9686.145885
376.917512,76.570323,172.283227,9820.143950
376.920031,57.427742,248.853550,9992.427178
376.922551,-0.000000,363.709035,9743.573627
376.925070,19.142581,248.853550,9781.858789
376.927590,95.712904,210.568389,9973.284597
376.930109,-38.285162,95.712904,9743.573627
376.932629,57.427742,95.712904,9896.714274
376.935148,76.570323,325.423874,9992.427178
376.937668,-19.142581,287.138712,9609.575562
376.940187,172.283227,114.855485,9686.145885
376.942707,153.140646,287.138712,10030.712339
376.945226,-57.427742,114.855485,9915.856854
376.947746,114.855485,-38.285162,9934.999435
376.950270,114.855485,306.281293,10068.997501
376.952794,-38.285162,229.710970,9686.145885
376.955318,172.283227,38.285162,9762.716208
376.957842,210.568389,191.425808,9896.714274
376.960366,76.570323,76.570323,9724.431046
376.962890,114.855485,0.000000,9858.429112
376.965414,76.570323,267.996131,9915.856854
376.967937,-114.855485,210.568389,9762.716208
376.970461,57.427742,95.712904,9801.001370
376.972985,191.425808,210.568389,9877.571693
376.975509,19.142581,38.285162,9743.573627
376.978033,191.425808,38.285162,9915.856854
376.980557,114.855485,229.710970,9743.573627
376.983081,19.142581,287.138712,9705.288466
376.985605,153.140646,95.712904,10030.712339
376.988129,95.712904,95.712904,9801.001370
376.990653,38.285162,76.570323,9762.716208
376.993177,133.998066,38.285162,10030.712339
376.995701,133.998066,229.710970,9762.716208
376.998225,19.142581,210.568389,9781.858789
377.000749,153.140646,133.998066,9973.284597
377.003273,114.855485,0.000000,9724.431046
377.005796,-0.000000,76.570323,9762.716208
377.008320,76.570323,133.998066,10088.140082
377.010844,114.855485,153.140646,9762.716208
377.013368,19.142581,191.425808,9781.858789
377.015892,114.855485,153.140646,10011.569758
377.018416,172.283227,38.285162,9801.001370
377.020940,19.142581,-57.427742,9896.714274
377.023464,57.427742,287.138712,10088.140082
377.025988,-76.570323,306.281293,9686.145885
377.028512,95.712904,172.283227,9762.716208
377.031036,133.998066,153.140646,10049.854920
377.033560,-95.712904,57.427742,9743.573627
377.036084,-0.000000,38.285162,9820.143950
377.038608,-19.142581,363.709035,9992.427178
377.041131,-0.000000,248.853550,9724.431046
377.043655,172.283227,114.855485,9858.429112
377.046179,133.998066,287.138712,10068.997501
377.048703,-76.570323,76.570323,9762.716208
377.051230,76.570323,76.570323,9973.284597
377.053756,57.427742,401.994197,10011.569758
377.056283,-38.285162,325.423874,9686.145885
377.058810,172.283227,114.855485,9801.001370
377.061336,210.568389,248.853550,10030.712339
377.063863,-133.998066,95.712904,9820.143950
377.066389,153.140646,95.712904,10011.569758
377.068916,172.283227,440.279358,9743.573627
377.071443,-133.998066,401.994197,9724.431046
377.073969,76.570323,114.855485,9839.286531
377.076496,133.998066,153.140646,9781.858789
377.079023,-38.285162,133.998066,9820.143950
377.081549,191.425808,191.425808,9896.714274
377.084076,114.855485,382.851616,9686.145885
377.086602,-19.142581,325.423874,9743.573627
377.089129,76.570323,267.996131,9915.856854
377.091656,76.570323,210.568389,9801.001370
377.094182,38.285162,172.283227,9915.856854
377.096709,57.427742,153.140646,9992.427178
377.099235,76.570323,306.281293,9609.575562
377.101762,57.427742,191.425808,9686.145885
377.104289,57.427742,114.855485,10088.140082
377.106815,114.855485,114.855485,9839.286531
377.109342,-19.142581,191.425808,9896.714274
377.111868,153.140646,401.994197,10088.140082
377.114395,19.142581,287.138712,9647.860723
377.116922,114.855485,95.712904,9762.716208
377.119448,38.285162,76.570323,10068.997501
377.121975,38.285162,95.712904,9858.429112
377.124501,38.285162,95.712904,9781.858789
377.127028,114.855485,363.709035,10011.569758
377.129555,38.285162,248.853550,9820.143950
377.132081,57.427742,95.712904,9801.001370
377.134608,133.998066,191.425808,10126.425243
377.137134,-76.570323,133.998066,9858.429112
377.139661,38.285162,76.570323,9762.716208
377.142188,229.710970,401.994197,9915.856854
377.144714,-0.000000,114.855485,9705.288466
377.147241,153.140646,-19.142581,9686.145885
377.149767,114.855485,133.998066,10030.712339
377.152297,-153.140646,76.570323,9877.571693
377.154826,114.855485,95.712904,9858.429112
377.157354,229.710970,344.566454,9820.143950
377.159882,38.285162,210.568389,9686.145885
377.162411,95.712904,0.000000,9896.714274
377.164939,210.568389,0.000000,9973.284597
377.167467,-133.998066,95.712904,9801.001370
377.169996,114.855485,210.568389,9858.429112
377.172524,267.996131,267.996131,9858.429112
377.175052,57.427742,133.998066,9743.573627
377.177581,114.855485,19.142581,9973.284597
377.180109,114.855485,76.570323,9915.856854
377.182637,-114.855485,114.855485,9820.143950
377.185166,19.142581,210.568389,9896.714274
377.187694,191.425808,248.853550,9820.143950
377.190222,57.427742,133.998066,9743.573627
377.192751,57.427742,57.427742,9973.284597
377.195279,95.712904,38.285162,9839.286531
377.197807,-114.855485,191.425808,9839.286531
377.200336,19.142581,191.425808,9973.284597
377.202864,38.285162,229.710970,9724.431046
377.205392,172.283227,76.570323,9762.716208
377.207921,114.855485,114.855485,10068.997501
377.210449,-19.142581,38.285162,9820.143950
377.212977,57.427742,95.712904,9839.286531
377.215506,57.427742,344.566454,10011.569758
377.218034,-19.142581,325.423874,9820.143950
377.220562,76.570323,114.855485,9820.143950
377.223091,172.283227,210.568389,9973.284597
377.225619,38.285162,76.570323,9743.573627
377.228147,76.570323,-19.142581,9954.142016
377.230676,76.570323,229.710970,9877.571693
377.233204,-57.427742,306.281293,9724.431046
377.235732,172.283227,153.140646,9743.573627
377.238261,153.140646,153.140646,9992.427178
377.240789,-0.000000,153.140646,9896.714274
377.243317,76.570323,114.855485,9839.286531
377.245846,153.140646,363.709035,9896.714274
377.248374,-57.427742,229.710970,9724.431046
377.250902,153.140646,95.712904,9896.714274
377.253432,229.710970,76.570323,9877.571693
377.255961,-114.855485,229.710970,9877.571693
377.258491,114.855485,153.140646,9915.856854
377.261020,153.140646,306.281293,9801.001370
377.263549,-38.285162,325.423874,9743.573627
377.266079,153.140646,133.998066,9973.284597
377.268608,133.998066,95.712904,9877.571693
377.271138,-38.285162,133.998066,9896.714274
377.273667,133.998066,210.568389,9992.427178
377.276197,95.712904,401.994197,9820.143950
377.278726,19.142581,344.566454,9686.145885
377.281255,133.998066,172.283227,9896.714274
377.283785,153.140646,95.712904,9781.858789
377.286314,-38.285162,76.570323,9820.143950
377.288844,57.427742,248.853550,9992.427178
377.291373,172.283227,153.140646,9839.286531
377.293902,57.427742,172.283227,9647.860723
377.296432,153.140646,267.996131,10049.854920
377.298961,38.285162,114.855485,9781.858789
377.301491,38.285162,76.570323,9801.001370
377.304020,57.427742,306.281293,10088.140082
377.306550,57.427742,306.281293,9801.001370
377.309079,114.855485,133.998066,9647.860723
377.311608,114.855485,248.853550,10011.569758
377.314138,-38.285162,76.570323,9762.716208
377.316667,133.998066,-38.285162,9915.856854
377.319197,153.140646,306.281293,10088.140082
377.321726,38.285162,267.996131,9762.716208
377.324256,153.140646,153.140646,9647.860723
377.326785,114.855485,248.853550,10049.854920
377.329314,38.285162,76.570323,9934.999435
377.331844,38.285162,19.142581,9762.716208
377.334373,76.570323,325.423874,10030.712339
377.336903,-19.142581,248.853550,9686.145885
377.339432,57.427742,153.140646,9705.288466
377.341962,191.425808,76.570323,9896.714274
377.344491,38.285162,76.570323,9762.716208
377.347020,76.570323,76.570323,9915.856854
377.349550,153.140646,248.853550,9934.999435
377.352079,-57.427742,287.138712,9801.001370
377.354609,95.712904,114.855485,9801.001370
377.357138,172.283227,0.000000,9839.286531
377.359668,38.285162,38.285162,9877.571693
377.362197,38.285162,76.570323,9877.571693
377.364727,95.712904,267.996131,9743.573627
377.367256,76.570323,287.138712,9705.288466
377.369786,114.855485,172.283227,9877.571693
377.372315,95.712904,95.712904,9781.858789
377.374845,-19.142581,38.285162,9820.143950
377.377374,19.142581,114.855485,10068.997501
377.379904,114.855485,229.710970,9724.431046
377.382434,19.142581,325.423874,9762.716208
377.384963,57.427742,191.425808,9992.427178
377.387493,19.142581,76.570323,9724.431046
377.390022,114.855485,-76.570323,9858.429112
377.392552,57.427742,248.853550,10049.854920
377.395081,-38.285162,210.568389,9705.288466
377.397611,191.425808,114.855485,9762.716208
377.400140,133.998066,191.425808,10049.854920
377.402670,38.285162,133.998066,9743.573627
377.405199,95.712904,-19.142581,9801.001370
377.407729,114.855485,248.853550,9954.142016
377.410258,-95.712904,287.138712,9686.145885
377.412788,133.998066,95.712904,9705.288466
377.415317,153.140646,191.425808,9973.284597
377.417847,-19.142581,133.998066,9801.001370
377.420376,19.142581,-38.285162,9801.001370
377.422906,76.570323,287.138712,10068.997501
377.425435,-0.000000,306.281293,9877.571693
377.427965,76.570323,191.425808,9839.286531
377.430494,210.568389,191.425808,9858.429112
377.433024,-0.000000,153.140646,9781.858789
377.435553,76.570323,19.142581,9915.856854
377.438083,114.855485,267.996131,9896.714274
377.440612,-19.142581,229.710970,9724.431046
377.443142,19.142581,153.140646,9896.714274
377.445672,210.568389,172.283227,9896.714274
377.448201,-0.000000,172.283227,9724.431046
377.450731,153.140646,114.855485,9896.714274
377.453260,114.855485,306.281293,9781.858789
377.455789,-0.000000,229.710970,9686.145885
377.458318,19.142581,191.425808,9896.714274
377.460847,153.140646,172.283227,9858.429112
377.463377,19.142581,172.283227,9896.714274
377.465906,76.570323,76.570323,9915.856854
377.468435,172.283227,363.709035,9858.429112
377.470964,-0.000000,229.710970,9667.003304
377.473493,76.570323,172.283227,10049.854920
377.476022,19.142581,210.568389,9858.429112
377.478551,114.855485,114.855485,9762.716208
377.481080,191.425808,344.566454,10049.854920
377.483610,-0.000000,306.281293,9743.573627
377.486139,76.570323,76.570323,9724.431046
377.488668,57.427742,153.140646,10049.854920
377.491197,-57.427742,191.425808,9896.714274
377.493726,76.570323,191.425808,9839.286531
377.496255,153.140646,382.851616,9954.142016
377.498784,76.570323,267.996131,9781.858789
377.501314,19.142581,95.712904,9686.145885
377.503843,76.570323,76.570323,10030.712339
377.506372,-0.000000,95.712904,9934.999435
377.508901,114.855485,38.285162,9781.858789
377.511430,153.140646,344.566454,9896.714274
377.513959,-57.427742,267.996131,9820.143950
377.516488,172.283227,38.285162,9820.143950
377.519017,191.425808,95.712904,9934.999435
377.521547,-57.427742,191.425808,9801.001370
377.524076,76.570323,114.855485,9820.143950
377.526605,153.140646,287.138712,9839.286531
377.529134,19.142581,191.425808,9781.858789
377.531663,57.427742,57.427742,9858.429112
377.534192,210.568389,95.712904,9915.856854
377.536721,-38.285162,191.425808,9781.858789
377.539250,76.570323,210.568389,9877.571693
377.541780,172.283227,306.281293,9820.143950
377.544309,-19.142581,248.853550,9762.716208
377.546838,95.712904,0.000000,9896.714274
377.549367,191.425808,76.570323,9915.856854
377.551896,-0.000000,191.425808,9820.143950
377.554425,57.427742,114.855485,9858.429112
377.556954,95.712904,306.281293,9781.858789
377.559482,19.142581,210.568389,9647.860723
377.562011,95.712904,19.142581,9934.999435
377.564540,76.570323,38.285162,9934.999435
377.567068,57.427742,76.570323,9801.001370
377.569597,153.140646,287.138712,9896.714274
377.572125,38.285162,210.568389,9724.431046
377.574654,76.570323,76.570323,9647.860723
377.577183,229.710970,114.855485,10030.712339
377.579711,76.570323,0.000000,9820.143950
377.582240,76.570323,114.855485,9801.001370
377.584768,95.712904,382.851616,9915.856854
377.587297,-57.427742,306.281293,9705.288466
377.589826,95.712904,38.285162,9724.431046
377.592354,114.855485,38.285162,10088.140082
377.594883,-19.142581,-76.570323,9915.856854
377.597411,19.142581,172.283227,9781.858789
377.599940,76.570323,382.851616,9915.856854
377.602469,38.285162,382.851616,9762.716208
377.604997,191.425808,114.855485,9762.716208
377.607526,133.998066,57.427742,9896.714274
377.610054,19.142581,95.712904,9934.999435
377.612583,38.285162,38.285162,9839.286531
377.615112,133.998066,401.994197,9934.999435
377.617640,114.855485,440.279358,9647.860723
377.620169,172.283227,133.998066,9820.143950
377.622697,172.283227,133.998066,9877.571693
377.625226,-57.427742,153.140646,9801.001370
377.627755,76.570323,114.855485,9877.571693
377.630283,210.568389,267.996131,9781.858789
377.632812,57.427742,306.281293,9724.431046
377.635340,114.855485,114.855485,9839.286531
377.637869,153.140646,248.853550,9877.571693
377.640398,-38.285162,153.140646,9896.714274
377.642926,38.285162,153.140646,9839.286531
377.645455,153.140646,344.566454,9820.143950
377.647983,38.285162,325.423874,9801.001370
377.650512,19.142581,57.427742,9934.999435
377.653041,153.140646,38.285162,9896.714274
377.655569,19.142581,153.140646,9781.858789
377.658097,133.998066,325.423874,9954.142016
377.660624,38.285162,382.851616,9820.143950
377.663151,114.855485,191.425808,9743.573627
377.665679,57.427742,153.140646,9992.427178
377.668206,-19.142581,133.998066,9934.999435
377.670734,95.712904,133.998066,9762.716208
377.673261,153.140646,363.709035,9801.001370
377.675788,76.570323,344.566454,9781.858789
377.678316,38.285162,153.140646,9686.145885
377.680843,19.142581,191.425808,10088.140082
377.683371,-114.855485,133.998066,9896.714274
377.685898,114.855485,95.712904,9762.716208
377.688425,57.427742,382.851616,9954.142016
377.690953,38.285162,325.423874,9762.716208
377.693480,95.712904,133.998066,9743.573627
377.696008,57.427742,133.998066,9934.999435
377.698535,-38.285162,133.998066,9839.286531
377.701062,76.570323,172.283227,9820.143950
377.703590,153.140646,344.566454,9820.143950
377.706117,38.285162,267.996131,9762.716208
377.708645,95.712904,38.285162,9858.429112
377.711172,114.855485,76.570323,10011.569758
377.713699,-76.570323,172.283227,9915.856854
377.716227,19.142581,210.568389,9896.714274
377.718754,267.996131,325.423874,9877.571693
377.721282,76.570323,229.710970,9820.143950
377.723809,57.427742,57.427742,9801.001370
377.726336,210.568389,0.000000,9858.429112
377.728864,76.570323,133.998066,9896.714274
377.731391,38.285162,229.710970,9915.856854
377.733919,172.283227,325.423874,9820.143950
377.736446,76.570323,191.425808,9781.858789
377.738974,57.427742,0.000000,9915.856854
377.741501,114.855485,95.712904,9839.286531
377.744028,57.427742,172.283227,9743.573627
377.746556,133.998066,363.709035,9896.714274
377.749083,57.427742,363.709035,9724.431046
377.751611,57.427742,133.998066,9705.288466
377.754138,229.710970,76.570323,10049.854920
377.756665,-57.427742,0.000000,9954.142016
377.759192,57.427742,95.712904,9839.286531
377.761718,76.570323,306.281293,9896.714274
377.764245,76.570323,229.710970,9801.001370
377.766771,229.710970,133.998066,9781.858789
377.769298,172.283227,76.570323,10068.997501
377.771824,-38.285162,133.998066,9820.143950
377.774351,19.142581,57.427742,9762.716208
377.776877,133.998066,267.996131,9992.427178
377.779403,-19.142581,287.138712,9801.001370
377.781930,57.427742,38.285162,9762.716208
377.784456,114.855485,133.998066,10011.569758
377.786983,-38.285162,210.568389,9915.856854
377.789509,57.427742,95.712904,9801.001370
377.792036,229.710970,287.138712,9915.856854
377.794562,38.285162,306.281293,9762.716208
377.797089,57.427742,0.000000,9896.714274
377.799615,229.710970,76.570323,9992.427178
377.802142,19.142581,210.568389,9858.429112
377.804668,95.712904,172.283227,9934.999435
377.807195,248.853550,267.996131,9762.716208
377.809721,-19.142581,229.710970,9743.573627
377.812247,95.712904,0.000000,9839.286531
377.814774,76.570323,114.855485,10049.854920
377.817300,-38.285162,191.425808,9896.714274
377.819827,57.427742,306.281293,9801.001370
377.822353,267.996131,363.709035,9801.001370
377.824880,19.142581,229.710970,9705.288466
377.827406,-19.142581,57.427742,9858.429112
377.829933,133.998066,76.570323,9973.284597
377.832459,-38.285162,153.140646,9915.856854
377.834986,114.855485,248.853550,9934.999435
377.837512,19.142581,306.281293,9686.145885
377.840038,114.855485,76.570323,9686.145885
377.842565,133.998066,114.855485,10049.854920
377.845091,57.427742,133.998066,9934.999435
377.847618,-19.142581,172.283227,9781.858789
377.850144,95.712904,344.566454,9915.856854
377.852671,-19.142581,325.423874,9762.716208
377.855197,57.427742,133.998066,9647.860723
377.857724,95.712904,76.570323,9992.427178
