#time,accel_x,accel_y,accel_z
357.390966,76.570323,229.710970,9877.571693
357.393754,57.427742,153.140646,9934.999435
357.396543,19.142581,133.998066,9915.856854
357.399331,57.427742,210.568389,9934.999435
357.402119,57.427742,133.998066,9934.999435
357.404907,153.140646,210.568389,9934.999435
357.407695,57.427742,191.425808,9934.999435
357.410483,38.285162,210.568389,9896.714274
357.413271,114.855485,191.425808,9877.571693
357.416059,172.283227,153.140646,9915.856854
357.418848,153.140646,191.425808,9877.571693
357.421636,172.283227,210.568389,9724.431046
357.424424,57.427742,210.568389,9743.573627
357.427212,114.855485,114.855485,9762.716208
357.430000,19.142581,191.425808,9896.714274
357.432788,57.427742,114.855485,9839.286531
357.435576,19.142581,133.998066,9820.143950
357.438364,57.427742,133.998066,9877.571693
357.441152,19.142581,95.712904,9877.571693
357.443941,19.142581,133.998066,9896.714274
357.446729,57.427742,114.855485,9781.858789
357.449517,19.142581,191.425808,9781.858789
357.452305,133.998066,172.283227,9839.286531
357.455093,76.570323,172.283227,9762.716208
357.457881,114.855485,114.855485,9877.571693
357.460669,114.855485,210.568389,9877.571693
357.463457,114.855485,172.283227,9877.571693
357.466282,114.855485,114.855485,9858.429112
357.469107,76.570323,210.568389,9820.143950
357.471931,114.855485,172.283227,9877.571693
357.474756,76.570323,133.998066,9915.856854
357.477580,38.285162,172.283227,9915.856854
357.480405,57.427742,153.140646,9934.999435
357.483229,38.285162,172.283227,9915.856854
357.486054,76.570323,210.568389,9820.143950
357.488878,19.142581,133.998066,9801.001370
357.491703,19.142581,153.140646,9801.001370
357.494527,19.142581,153.140646,9839.286531
357.497352,19.142581,153.140646,9781.858789
357.500176,76.570323,210.568389,9820.143950
357.503001,57.427742,95.712904,9781.858789
357.505825,76.570323,76.570323,9724.431046
357.508650,57.427742,95.712904,9896.714274
357.511474,57.427742,57.427742,9839.286531
357.514299,76.570323,133.998066,9839.286531
357.517123,76.570323,248.853550,9820.143950
357.519948,76.570323,210.568389,9877.571693
357.522772,76.570323,114.855485,9858.429112
357.525597,172.283227,114.855485,9915.856854
357.528421,95.712904,95.712904,9896.714274
357.531246,76.570323,153.140646,9915.856854
357.534070,76.570323,229.710970,9877.571693
357.536895,38.285162,210.568389,9915.856854
357.539719,95.712904,306.281293,9896.714274
357.542544,38.285162,172.283227,9743.573627
357.545368,76.570323,248.853550,9915.856854
357.548193,19.142581,153.140646,9839.286531
357.551017,114.855485,133.998066,9743.573627
357.553842,-0.000000,248.853550,9781.858789
357.556667,-0.000000,191.425808,9781.858789
357.559491,19.142581,210.568389,9839.286531
357.562316,-38.285162,248.853550,9839.286531
357.565140,19.142581,287.138712,9743.573627
357.567965,57.427742,191.425808,9934.999435
357.570789,114.855485,210.568389,9801.001370
357.573614,95.712904,114.855485,9877.571693
357.576438,210.568389,191.425808,9896.714274
357.579249,57.427742,229.710970,9896.714274
357.582060,19.142581,248.853550,9781.858789
357.584871,95.712904,287.138712,9858.429112
357.587682,95.712904,153.140646,10011.569758
357.590493,57.427742,287.138712,9781.858789
357.593304,76.570323,172.283227,9858.429112
357.596115,172.283227,267.996131,9858.429112
357.598926,95.712904,267.996131,9934.999435
357.601737,19.142581,153.140646,9781.858789
357.604548,-57.427742,210.568389,9915.856854
357.607359,-19.142581,267.996131,9877.571693
357.610170,-0.000000,191.425808,9781.858789
357.612981,95.712904,172.283227,9762.716208
357.615792,114.855485,114.855485,9781.858789
357.618603,19.142581,133.998066,9781.858789
357.621414,95.712904,248.853550,9724.431046
357.624225,19.142581,210.568389,9839.286531
357.627036,95.712904,229.710970,9762.716208
357.629847,19.142581,172.283227,9896.714274
357.632658,114.855485,114.855485,9820.143950
357.635469,57.427742,95.712904,9801.001370
357.638280,95.712904,153.140646,10049.854920
357.641091,133.998066,248.853550,9762.716208
357.643902,-19.142581,210.568389,9915.856854
357.646712,57.427742,287.138712,9896.714274
357.649523,-0.000000,153.140646,9896.714274
357.652334,76.570323,114.855485,9801.001370
357.655145,-19.142581,57.427742,9934.999435
357.657956,76.570323,76.570323,9915.856854
357.660767,76.570323,191.425808,9877.571693
357.663578,95.712904,172.283227,9839.286531
357.666389,191.425808,191.425808,9762.716208
357.669200,38.285162,38.285162,9820.143950
357.672011,191.425808,95.712904,9743.573627
357.674822,-76.570323,76.570323,9762.716208
357.677633,95.712904,133.998066,9743.573627
357.680444,-57.427742,133.998066,9839.286531
357.683255,-0.000000,133.998066,9762.716208
357.686066,114.855485,133.998066,9743.573627
357.688877,114.855485,76.570323,9915.856854
357.691660,153.140646,114.855485,9781.858789
357.694442,76.570323,114.855485,9820.143950
357.697225,95.712904,133.998066,9934.999435
357.700008,19.142581,191.425808,9896.714274
357.702791,19.142581,172.283227,9858.429112
357.705573,57.427742,114.855485,9915.856854
357.708356,172.283227,133.998066,10011.569758
357.711139,95.712904,191.425808,9820.143950
357.713921,76.570323,172.283227,9762.716208
357.716704,133.998066,191.425808,9762.716208
357.719487,114.855485,76.570323,9915.856854
357.722269,133.998066,114.855485,9820.143950
357.725052,19.142581,133.998066,9801.001370
357.727835,114.855485,210.568389,9839.286531
357.730618,-19.142581,133.998066,9820.143950
357.733400,38.285162,133.998066,9762.716208
357.736183,114.855485,172.283227,9839.286531
357.738966,76.570323,114.855485,9877.571693
357.741748,57.427742,191.425808,9628.718142
357.744531,19.142581,133.998066,9858.429112
357.747314,95.712904,229.710970,9877.571693
357.750096,38.285162,95.712904,9896.714274
357.752879,114.855485,172.283227,9839.286531
357.755662,19.142581,153.140646,9839.286531
357.758445,95.712904,191.425808,10049.854920
357.761227,95.712904,210.568389,9801.001370
357.764010,76.570323,153.140646,9877.571693
357.766793,133.998066,229.710970,9877.571693
357.769575,76.570323,76.570323,9915.856854
357.772358,95.712904,287.138712,9801.001370
357.775141,-38.285162,95.712904,9934.999435
357.777923,95.712904,210.568389,9858.429112
357.780706,76.570323,229.710970,9877.571693
357.783489,-19.142581,191.425808,9877.571693
357.786271,153.140646,306.281293,9858.429112
357.789054,153.140646,95.712904,9839.286531
357.791837,76.570323,172.283227,9762.716208
357.794620,-0.000000,114.855485,9743.573627
357.797402,76.570323,153.140646,9877.571693
357.800185,19.142581,133.998066,9896.714274
357.802936,19.142581,210.568389,9877.571693
357.805687,38.285162,325.423874,9820.143950
357.808438,76.570323,229.710970,9877.571693
357.811189,95.712904,153.140646,9743.573627
357.813939,76.570323,114.855485,9762.716208
357.816690,133.998066,172.283227,9877.571693
357.819441,-19.142581,229.710970,9954.142016
357.822192,76.570323,229.710970,9820.143950
357.824943,57.427742,229.710970,9896.714274
357.827694,153.140646,248.853550,9992.427178
357.830445,76.570323,191.425808,9858.429112
357.833196,57.427742,114.855485,9839.286531
357.835946,76.570323,172.283227,9858.429112
357.838697,19.142581,114.855485,9973.284597
357.841448,76.570323,248.853550,9858.429112
357.844199,-19.142581,191.425808,9858.429112
357.846950,114.855485,229.710970,9801.001370
357.849701,19.142581,248.853550,9781.858789
357.852452,57.427742,95.712904,9801.001370
357.855203,76.570323,191.425808,9858.429112
357.857954,38.285162,210.568389,9915.856854
357.860704,38.285162,210.568389,9686.145885
357.863455,19.142581,133.998066,9896.714274
357.866206,114.855485,133.998066,9934.999435
357.868957,-76.570323,76.570323,9820.143950
357.871708,133.998066,172.283227,9820.143950
357.874459,76.570323,114.855485,9820.143950
357.877210,95.712904,191.425808,9934.999435
357.879961,76.570323,172.283227,9858.429112
357.882712,-0.000000,95.712904,9934.999435
357.885462,153.140646,153.140646,9743.573627
357.888213,76.570323,76.570323,9915.856854
357.890964,95.712904,133.998066,9973.284597
357.893715,38.285162,153.140646,9896.714274
357.896466,95.712904,210.568389,9934.999435
357.899217,95.712904,172.283227,9762.716208
357.901968,76.570323,114.855485,9839.286531
357.904719,133.998066,172.283227,9820.143950
357.907470,19.142581,153.140646,9839.286531
357.910220,38.285162,76.570323,9743.573627
357.912946,-57.427742,114.855485,9896.714274
357.915665,76.570323,153.140646,9858.429112
357.918385,19.142581,133.998066,9801.001370
357.921104,114.855485,114.855485,9762.716208
357.923823,95.712904,114.855485,9781.858789
357.926543,95.712904,133.998066,9954.142016
357.929262,76.570323,114.855485,9762.716208
357.931982,38.285162,76.570323,9877.571693
357.934701,153.140646,114.855485,9896.714274
357.937420,19.142581,191.425808,9839.286531
357.940140,114.855485,210.568389,9762.716208
357.942859,57.427742,114.855485,9896.714274
357.945579,191.425808,191.425808,9896.714274
357.948298,95.712904,172.283227,9762.716208
357.951017,95.712904,153.140646,9858.429112
357.953737,133.998066,210.568389,9762.716208
357.956456,114.855485,172.283227,9877.571693
357.959175,76.570323,210.568389,9820.143950
357.961895,-76.570323,172.283227,9896.714274
357.964614,57.427742,229.710970,9896.714274
357.967334,19.142581,191.425808,9801.001370
357.970053,95.712904,172.283227,9820.143950
357.972772,76.570323,191.425808,9896.714274
357.975492,76.570323,114.855485,9858.429112
357.978211,57.427742,153.140646,9762.716208
357.980931,-19.142581,248.853550,9896.714274
357.983650,153.140646,306.281293,9896.714274
357.986369,57.427742,172.283227,9781.858789
357.989089,133.998066,172.283227,9781.858789
357.991808,38.285162,76.570323,9858.429112
357.994528,153.140646,191.425808,9896.714274
357.997247,57.427742,401.994197,9781.858789
357.999966,76.570323,210.568389,9877.571693
358.002686,133.998066,306.281293,9934.999435
358.005405,57.427742,191.425808,9992.427178
358.008124,19.142581,153.140646,9781.858789
358.010844,-19.142581,95.712904,9934.999435
358.013563,153.140646,287.138712,9896.714274
358.016283,-19.142581,153.140646,9820.143950
358.019002,19.142581,248.853550,9858.429112
358.021558,38.285162,287.138712,9915.856854
358.024115,57.427742,172.283227,9934.999435
358.026671,114.855485,76.570323,9724.431046
358.029228,-0.000000,95.712904,9934.999435
358.031784,114.855485,229.710970,9877.571693
358.034341,-57.427742,210.568389,9801.001370
358.036897,76.570323,229.710970,9839.286531
358.039454,57.427742,153.140646,9877.571693
358.042010,76.570323,76.570323,9915.856854
358.044566,114.855485,76.570323,9781.858789
358.047123,-0.000000,114.855485,9915.856854
358.049679,133.998066,248.853550,9839.286531
358.052236,19.142581,191.425808,9896.714274
358.054792,76.570323,210.568389,9820.143950
358.057349,-19.142581,95.712904,9934.999435
358.059905,57.427742,191.425808,9934.999435
358.062462,153.140646,114.855485,9781.858789
358.065018,95.712904,114.855485,9839.286531
358.067575,95.712904,153.140646,9762.716208
358.070131,114.855485,114.855485,9877.571693
358.072687,114.855485,172.283227,9762.716208
358.075244,-57.427742,153.140646,9801.001370
358.077800,95.712904,172.283227,9954.142016
358.080357,38.285162,38.285162,9820.143950
358.082913,114.855485,57.427742,9801.001370
358.085470,172.283227,133.998066,9820.143950
358.088026,95.712904,95.712904,9839.286531
358.090583,76.570323,172.283227,9858.429112
358.093139,-19.142581,172.283227,9915.856854
358.095695,114.855485,210.568389,9839.286531
358.098252,38.285162,76.570323,9839.286531
358.100808,172.283227,95.712904,9781.858789
358.103365,19.142581,153.140646,9801.001370
358.105921,114.855485,114.855485,9877.571693
358.108478,38.285162,133.998066,9762.716208
358.111034,114.855485,172.283227,9858.429112
358.113591,76.570323,153.140646,9877.571693
358.116147,19.142581,153.140646,10030.712339
358.118703,114.855485,114.855485,9858.429112
358.121260,-19.142581,133.998066,9896.714274
358.123842,76.570323,172.283227,9858.429112
358.126424,76.570323,133.998066,9781.858789
358.129006,114.855485,114.855485,9839.286531
358.131588,95.712904,229.710970,9801.001370
358.134170,19.142581,95.712904,9934.999435
358.136752,76.570323,114.855485,9762.716208
358.139335,-19.142581,114.855485,9915.856854
358.141917,76.570323,191.425808,9820.143950
358.144499,19.142581,172.283227,9839.286531
358.147081,19.142581,191.425808,9781.858789
358.149663,38.285162,76.570323,9858.429112
358.152245,76.570323,229.710970,9839.286531
358.154827,191.425808,172.283227,9762.716208
358.157409,57.427742,114.855485,9896.714274
358.159991,76.570323,153.140646,9877.571693
358.162573,-57.427742,172.283227,9915.856854
358.165155,191.425808,248.853550,9839.286531
358.167738,57.427742,191.425808,9877.571693
358.170320,133.998066,248.853550,9896.714274
358.172902,95.712904,153.140646,9743.573627
358.175484,114.855485,114.855485,9820.143950
358.178066,114.855485,114.855485,9896.714274
358.180648,57.427742,133.998066,9934.999435
358.183230,76.570323,229.710970,9820.143950
358.185812,-19.142581,191.425808,9839.286531
358.188394,57.427742,344.566454,9858.429112
358.190976,38.285162,38.285162,9877.571693
358.193558,133.998066,133.998066,9877.571693
358.196141,133.998066,95.712904,9801.001370
358.198723,-19.142581,191.425808,9896.714274
358.201305,76.570323,210.568389,9762.716208
358.203887,95.712904,248.853550,9934.999435
358.206469,114.855485,325.423874,9877.571693
358.209051,114.855485,172.283227,9877.571693
358.211633,76.570323,114.855485,9801.001370
358.214215,95.712904,114.855485,9877.571693
358.216797,57.427742,248.853550,9934.999435
358.219379,76.570323,229.710970,9762.716208
358.221961,76.570323,210.568389,9762.716208
358.224544,210.568389,210.568389,9877.571693
358.227138,76.570323,153.140646,9839.286531
358.229733,76.570323,210.568389,9801.001370
358.232328,19.142581,153.140646,9915.856854
358.234922,57.427742,248.853550,9954.142016
358.237517,76.570323,210.568389,9820.143950
358.240112,114.855485,172.283227,9877.571693
358.242706,114.855485,153.140646,9820.143950
358.245301,95.712904,95.712904,9781.858789
358.247896,114.855485,114.855485,9762.716208
358.250490,-38.285162,172.283227,9915.856854
358.253085,76.570323,191.425808,9877.571693
358.255680,-38.285162,267.996131,9877.571693
358.258275,57.427742,191.425808,9877.571693
358.260869,76.570323,172.283227,9762.716208
358.263464,95.712904,153.140646,9934.999435
358.266059,114.855485,95.712904,9839.286531
358.268653,38.285162,76.570323,9839.286531
358.271248,95.712904,172.283227,9877.571693
358.273843,19.142581,229.710970,9877.571693
358.276437,57.427742,210.568389,9934.999435
358.279032,-57.427742,248.853550,9839.286531
358.281627,133.998066,210.568389,9820.143950
358.284222,-19.142581,19.142581,9762.716208
358.286816,38.285162,19.142581,9877.571693
358.289411,57.427742,95.712904,9801.001370
358.292006,19.142581,172.283227,9896.714274
358.294600,133.998066,210.568389,9820.143950
358.297195,19.142581,191.425808,9839.286531
358.299790,133.998066,210.568389,9762.716208
358.302384,76.570323,114.855485,9858.429112
358.304979,57.427742,57.427742,9801.001370
358.307574,38.285162,76.570323,9839.286531
358.310168,57.427742,95.712904,9896.714274
358.312763,95.712904,172.283227,9762.716208
358.315358,76.570323,229.710970,9762.716208
358.317953,210.568389,248.853550,9801.001370
358.320547,57.427742,95.712904,9801.001370
358.323142,153.140646,95.712904,9839.286531
358.325737,19.142581,95.712904,9973.284597
358.328331,153.140646,114.855485,9896.714274
358.330932,76.570323,210.568389,9781.858789
358.333532,133.998066,191.425808,9839.286531
358.336132,229.710970,76.570323,9839.286531
358.338733,76.570323,114.855485,9877.571693
358.341333,19.142581,153.140646,9896.714274
358.343934,-38.285162,153.140646,9915.856854
358.346534,95.712904,210.568389,9858.429112
358.349134,76.570323,114.855485,9762.716208
358.351735,133.998066,210.568389,9839.286531
358.354335,95.712904,172.283227,9762.716208
358.356936,57.427742,229.710970,9896.714274
358.359536,19.142581,210.568389,9743.573627
358.362136,19.142581,229.710970,9820.143950
358.364737,114.855485,229.710970,9839.286531
358.367337,38.285162,76.570323,9858.429112
358.369937,114.855485,210.568389,9762.716208
358.372538,57.427742,191.425808,9934.999435
358.375138,76.570323,172.283227,9877.571693
358.377739,76.570323,114.855485,9762.716208
358.380339,133.998066,114.855485,9858.429112
358.382939,133.998066,153.140646,9820.143950
358.385540,57.427742,191.425808,9934.999435
358.388140,76.570323,210.568389,9877.571693
358.390741,-57.427742,248.853550,9877.571693
358.393341,95.712904,306.281293,9839.286531
358.395941,76.570323,133.998066,9839.286531
358.398542,114.855485,114.855485,9820.143950
358.401142,133.998066,172.283227,9820.143950
358.403742,57.427742,133.998066,9934.999435
358.406343,76.570323,210.568389,9820.143950
358.408943,-19.142581,267.996131,9877.571693
358.411544,76.570323,229.710970,9858.429112
358.414144,38.285162,76.570323,9858.429112
358.416744,172.283227,57.427742,9839.286531
358.419345,57.427742,133.998066,9877.571693
358.421945,57.427742,172.283227,9934.999435
358.424546,114.855485,306.281293,9781.858789
358.427146,191.425808,210.568389,9896.714274
358.429746,95.712904,210.568389,9858.429112
358.432347,-0.000000,191.425808,9839.286531
358.434948,57.427742,95.712904,9839.286531
358.437549,-38.285162,95.712904,9934.999435
358.440150,133.998066,76.570323,9954.142016
358.442751,114.855485,153.140646,9877.571693
358.445352,76.570323,210.568389,9820.143950
358.447954,133.998066,229.710970,9858.429112
358.450555,19.142581,229.710970,9934.999435
358.453156,153.140646,57.427742,9896.714274
358.455757,19.142581,95.712904,9934.999435
358.458358,114.855485,210.568389,9877.571693
358.460959,19.142581,153.140646,9839.286531
358.463560,-19.142581,267.996131,9839.286531
358.466162,76.570323,153.140646,9896.714274
358.468763,76.570323,153.140646,9896.714274
358.471364,57.427742,95.712904,9839.286531
358.473965,19.142581,133.998066,9820.143950
358.476566,95.712904,95.712904,9839.286531
358.479167,-38.285162,133.998066,9896.714274
358.481769,114.855485,191.425808,9839.286531
358.484370,19.142581,76.570323,9877.571693
358.486971,114.855485,229.710970,9762.716208
358.489572,57.427742,76.570323,9820.143950
358.492173,76.570323,114.855485,9801.001370
358.494774,153.140646,114.855485,9858.429112
358.497375,-19.142581,210.568389,9915.856854
358.499977,114.855485,210.568389,9858.429112
358.502578,-19.142581,153.140646,9896.714274
358.505179,76.570323,229.710970,9820.143950
358.507780,57.427742,95.712904,9801.001370
358.510381,114.855485,114.855485,9820.143950
358.512982,38.285162,76.570323,9877.571693
358.515583,76.570323,172.283227,9877.571693
358.518185,19.142581,210.568389,9839.286531
358.520786,38.285162,248.853550,9877.571693
358.523387,172.283227,172.283227,9781.858789
358.525988,76.570323,76.570323,9896.714274
358.528589,114.855485,172.283227,9858.429112
358.531190,19.142581,114.855485,9762.716208
358.533792,191.425808,191.425808,9820.143950
358.536393,114.855485,229.710970,9820.143950
358.538991,19.142581,153.140646,9896.714274
358.541590,95.712904,210.568389,9877.571693
358.544189,19.142581,57.427742,9934.999435
358.546787,76.570323,210.568389,9762.716208
358.549386,57.427742,38.285162,9820.143950
358.551985,76.570323,229.710970,9801.001370
358.554583,76.570323,229.710970,9820.143950
358.557182,76.570323,229.710970,9801.001370
358.559781,38.285162,172.283227,9915.856854
358.562379,19.142581,287.138712,9934.999435
358.564978,114.855485,210.568389,9762.716208
358.567576,114.855485,114.855485,9858.429112
358.570175,133.998066,248.853550,9839.286531
358.572774,19.142581,95.712904,9934.999435
358.575372,114.855485,306.281293,9858.429112
358.577971,-57.427742,267.996131,9877.571693
358.580570,153.140646,267.996131,9858.429112
358.583168,57.427742,95.712904,9839.286531
358.585767,38.285162,76.570323,9858.429112
358.588366,133.998066,229.710970,9839.286531
358.590964,19.142581,153.140646,9858.429112
358.593563,57.427742,306.281293,9781.858789
358.596162,19.142581,191.425808,9820.143950
358.598760,133.998066,210.568389,9877.571693
358.601359,95.712904,95.712904,9801.001370
358.603958,153.140646,114.855485,9896.714274
358.606556,133.998066,210.568389,9839.286531
358.609155,19.142581,153.140646,9877.571693
358.611754,133.998066,287.138712,9762.716208
358.614352,-19.142581,133.998066,9877.571693
358.616951,95.712904,153.140646,9877.571693
358.619549,57.427742,95.712904,9801.001370
358.622148,133.998066,153.140646,9801.001370
358.624747,114.855485,95.712904,9839.286531
358.627345,76.570323,210.568389,9858.429112
358.629944,57.427742,287.138712,9781.858789
358.632543,-95.712904,153.140646,9839.286531
358.635141,76.570323,191.425808,9877.571693
358.637740,76.570323,114.855485,9820.143950
358.640339,38.285162,76.570323,9839.286531
358.642933,76.570323,133.998066,9858.429112
358.645528,76.570323,229.710970,9877.571693
358.648122,76.570323,229.710970,9820.143950
358.650716,57.427742,287.138712,9896.714274
358.653311,114.855485,172.283227,9839.286531
358.655905,-76.570323,76.570323,9839.286531
358.658500,38.285162,76.570323,9858.429112
358.661094,38.285162,76.570323,9858.429112
358.663689,76.570323,153.140646,9877.571693
358.666283,-19.142581,153.140646,9801.001370
358.668877,95.712904,267.996131,9934.999435
358.671472,19.142581,172.283227,9781.858789
358.674066,19.142581,191.425808,9781.858789
358.676661,191.425808,95.712904,9858.429112
358.679255,-19.142581,57.427742,9839.286531
358.681850,191.425808,114.855485,9915.856854
358.684444,57.427742,153.140646,9934.999435
358.687038,19.142581,191.425808,9896.714274
358.689633,19.142581,153.140646,9896.714274
358.692227,76.570323,153.140646,9801.001370
358.694822,114.855485,95.712904,9801.001370
358.697416,76.570323,114.855485,9877.571693
358.700011,95.712904,114.855485,9858.429112
358.702605,-38.285162,172.283227,9896.714274
358.705199,76.570323,191.425808,9839.286531
358.707794,57.427742,95.712904,9896.714274
358.710388,114.855485,287.138712,9858.429112
358.712983,76.570323,114.855485,9820.143950
358.715577,153.140646,114.855485,9858.429112
358.718172,57.427742,95.712904,9839.286531
358.720766,76.570323,191.425808,9858.429112
358.723360,76.570323,191.425808,9762.716208
358.725955,57.427742,191.425808,9934.999435
358.728549,95.712904,229.710970,9858.429112
358.731144,19.142581,133.998066,9801.001370
358.733738,229.710970,133.998066,9762.716208
358.736333,191.425808,57.427742,9896.714274
358.738927,76.570323,210.568389,9877.571693
358.741521,-19.142581,229.710970,9781.858789
358.744116,38.285162,267.996131,9858.429112
358.746706,114.855485,229.710970,9877.571693
358.749296,19.142581,172.283227,9801.001370
358.751886,133.998066,114.855485,9839.286531
358.754475,38.285162,133.998066,9934.999435
358.757065,133.998066,191.425808,9781.858789
358.759655,19.142581,191.425808,9781.858789
358.762245,95.712904,325.423874,9915.856854
358.764835,133.998066,210.568389,9762.716208
358.767425,76.570323,172.283227,9781.858789
358.770015,172.283227,38.285162,9820.143950
358.772605,38.285162,57.427742,9820.143950
358.775194,153.140646,287.138712,9896.714274
358.777784,38.285162,248.853550,9877.571693
358.780374,57.427742,306.281293,9820.143950
358.782964,114.855485,229.710970,9896.714274
358.785554,38.285162,172.283227,9896.714274
358.788144,172.283227,57.427742,9858.429112
358.790734,57.427742,95.712904,9896.714274
358.793324,76.570323,210.568389,9839.286531
358.795913,38.285162,172.283227,9915.856854
358.798503,76.570323,267.996131,9915.856854
358.801093,76.570323,191.425808,9762.716208
358.803683,114.855485,229.710970,9820.143950
358.806273,19.142581,133.998066,9896.714274
358.808863,114.855485,153.140646,9877.571693
358.811453,76.570323,38.285162,9915.856854
358.814043,-38.285162,210.568389,9973.284597
358.816632,95.712904,344.566454,9839.286531
358.819222,57.427742,287.138712,9801.001370
358.821812,19.142581,248.853550,9801.001370
358.824402,153.140646,57.427742,9896.714274
358.826992,19.142581,153.140646,9839.286531
358.829582,133.998066,153.140646,9858.429112
358.832172,76.570323,325.423874,9896.714274
358.834762,76.570323,229.710970,9839.286531
358.837351,57.427742,153.140646,9934.999435
358.839941,95.712904,114.855485,9858.429112
358.842531,76.570323,191.425808,9877.571693
358.845121,76.570323,172.283227,9820.143950
358.847711,95.712904,248.853550,9647.860723
358.850295,76.570323,153.140646,9877.571693
358.852879,76.570323,-19.142581,9762.716208
358.855463,38.285162,76.570323,9762.716208
358.858047,76.570323,76.570323,9915.856854
358.860631,57.427742,95.712904,9781.858789
358.863215,114.855485,133.998066,9934.999435
358.865800,57.427742,114.855485,9781.858789
358.868384,153.140646,57.427742,9839.286531
358.870968,210.568389,133.998066,9896.714274
358.873552,76.570323,114.855485,9858.429112
358.876136,38.285162,172.283227,9724.431046
358.878720,133.998066,114.855485,9858.429112
358.881304,76.570323,-38.285162,9973.284597
358.883888,95.712904,153.140646,9762.716208
358.886472,57.427742,95.712904,9801.001370
358.889056,19.142581,153.140646,9839.286531
358.891640,57.427742,133.998066,9934.999435
358.894224,-19.142581,76.570323,9858.429112
358.896809,76.570323,76.570323,9839.286531
358.899393,114.855485,114.855485,9877.571693
358.901977,19.142581,95.712904,9896.714274
358.904561,38.285162,210.568389,9724.431046
358.907145,114.855485,95.712904,9801.001370
358.909729,38.285162,114.855485,9915.856854
358.912313,95.712904,95.712904,9724.431046
358.914897,57.427742,57.427742,9724.431046
358.917481,133.998066,210.568389,9839.286531
358.920065,19.142581,95.712904,9934.999435
358.922649,19.142581,133.998066,9896.714274
358.925233,19.142581,133.998066,9839.286531
358.927818,38.285162,267.996131,10068.997501
358.930402,95.712904,210.568389,9934.999435
358.932986,57.427742,229.710970,9781.858789
358.935570,210.568389,191.425808,9801.001370
358.938154,57.427742,133.998066,9934.999435
358.940738,114.855485,95.712904,9896.714274
358.943322,76.570323,153.140646,9762.716208
358.945906,19.142581,325.423874,9973.284597
358.948490,95.712904,287.138712,9839.286531
358.951074,57.427742,248.853550,9743.573627
358.953590,153.140646,191.425808,9743.573627
358.956098,76.570323,248.853550,9858.429112
358.958606,38.285162,114.855485,9724.431046
358.961115,19.142581,191.425808,9820.143950
358.963623,38.285162,172.283227,9915.856854
358.966131,133.998066,191.425808,9820.143950
358.968640,95.712904,172.283227,9858.429112
358.971148,95.712904,210.568389,9762.716208
358.973656,57.427742,248.853550,9934.999435
358.976164,95.712904,306.281293,9801.001370
358.978673,76.570323,229.710970,9839.286531
358.981181,57.427742,191.425808,9934.999435
358.983689,76.570323,172.283227,9839.286531
358.986198,38.285162,267.996131,9801.001370
358.988706,76.570323,210.568389,9820.143950
358.991214,76.570323,287.138712,9877.571693
358.993723,95.712904,287.138712,9781.858789
358.996231,76.570323,248.853550,9896.714274
358.998739,114.855485,153.140646,9915.856854
359.001248,38.285162,172.283227,9973.284597
359.003756,76.570323,191.425808,9820.143950
359.006264,19.142581,191.425808,9781.858789
359.008773,76.570323,210.568389,9839.286531
359.011281,76.570323,191.425808,9801.001370
359.013789,-19.142581,191.425808,9781.858789
359.016298,19.142581,191.425808,9877.571693
359.018806,57.427742,114.855485,9896.714274
359.021314,76.570323,172.283227,9801.001370
359.023823,57.427742,95.712904,9801.001370
359.026331,76.570323,210.568389,9820.143950
359.028839,95.712904,191.425808,9934.999435
359.031348,76.570323,172.283227,9877.571693
359.033856,19.142581,172.283227,9896.714274
359.036364,38.285162,114.855485,9973.284597
359.038873,153.140646,114.855485,9820.143950
359.041381,76.570323,172.283227,9858.429112
359.043889,172.283227,133.998066,9839.286531
359.046398,57.427742,172.283227,9877.571693
359.048906,19.142581,153.140646,9839.286531
359.051414,57.427742,95.712904,9896.714274
359.053937,19.142581,95.712904,9954.142016
359.056460,153.140646,95.712904,9820.143950
359.058983,95.712904,76.570323,9724.431046
359.061506,191.425808,191.425808,9743.573627
359.064029,76.570323,114.855485,9839.286531
359.066552,57.427742,114.855485,9801.001370
359.069075,95.712904,57.427742,9839.286531
359.071597,-19.142581,95.712904,9915.856854
359.074120,19.142581,95.712904,9877.571693
359.076643,-38.285162,133.998066,9781.858789
359.079166,114.855485,172.283227,9762.716208
359.081689,76.570323,76.570323,9915.856854
359.084212,153.140646,133.998066,9877.571693
359.086735,38.285162,76.570323,9858.429112
359.089258,76.570323,76.570323,9954.142016
359.091781,19.142581,153.140646,10011.569758
359.094304,-19.142581,76.570323,9762.716208
359.096827,76.570323,133.998066,9781.858789
359.099350,114.855485,153.140646,9954.142016
359.101872,153.140646,95.712904,9781.858789
359.104395,38.285162,76.570323,9877.571693
359.106918,19.142581,95.712904,9973.284597
359.109441,-57.427742,114.855485,9954.142016
359.111964,38.285162,210.568389,9724.431046
359.114487,191.425808,191.425808,9839.286531
359.117010,153.140646,172.283227,9934.999435
359.119533,19.142581,153.140646,9896.714274
359.122056,-114.855485,210.568389,9877.571693
359.124579,76.570323,210.568389,9820.143950
359.127102,57.427742,210.568389,9915.856854
359.129625,210.568389,133.998066,9801.001370
359.132147,133.998066,76.570323,9705.288466
359.134670,57.427742,287.138712,9839.286531
359.137193,57.427742,95.712904,9877.571693
359.139716,-19.142581,114.855485,9896.714274
359.142239,19.142581,248.853550,9858.429112
359.144762,19.142581,210.568389,9934.999435
359.147285,191.425808,191.425808,9781.858789
359.149808,57.427742,229.710970,9781.858789
359.152331,172.283227,287.138712,9839.286531
359.154800,-0.000000,248.853550,9801.001370
359.157269,76.570323,114.855485,9820.143950
359.159738,19.142581,191.425808,9896.714274
359.162207,-38.285162,210.568389,9915.856854
359.164676,153.140646,306.281293,9781.858789
359.167145,57.427742,229.710970,9839.286531
359.169614,95.712904,248.853550,9743.573627
359.172083,57.427742,287.138712,9858.429112
359.174552,-0.000000,191.425808,9781.858789
359.177021,19.142581,114.855485,9762.716208
359.179490,57.427742,172.283227,9954.142016
359.181959,76.570323,191.425808,9724.431046
359.184428,76.570323,210.568389,9858.429112
359.186897,133.998066,229.710970,9762.716208
359.189366,38.285162,248.853550,9934.999435
359.191835,76.570323,172.283227,9839.286531
359.194304,19.142581,172.283227,9858.429112
359.196773,57.427742,248.853550,9973.284597
359.199242,76.570323,210.568389,9858.429112
359.201711,114.855485,172.283227,9858.429112
359.204181,95.712904,210.568389,9762.716208
359.206650,57.427742,191.425808,9877.571693
359.209119,38.285162,248.853550,9858.429112
359.211588,19.142581,287.138712,9934.999435
359.214057,19.142581,172.283227,9896.714274
359.216526,19.142581,76.570323,9934.999435
359.218995,76.570323,114.855485,9762.716208
359.221464,57.427742,95.712904,9781.858789
359.223933,76.570323,210.568389,9877.571693
359.226402,19.142581,248.853550,9743.573627
359.228871,38.285162,229.710970,9915.856854
359.231340,57.427742,153.140646,9973.284597
359.233809,76.570323,76.570323,9915.856854
359.236278,133.998066,153.140646,9801.001370
359.238747,57.427742,95.712904,9858.429112
359.241216,191.425808,248.853550,9820.143950
359.243685,95.712904,95.712904,9801.001370
359.246154,57.427742,114.855485,9896.714274
359.248623,76.570323,172.283227,9877.571693
359.251092,-57.427742,95.712904,9954.142016
359.253586,153.140646,95.712904,9820.143950
359.256080,133.998066,114.855485,9801.001370
359.258573,133.998066,172.283227,9781.858789
359.261067,38.285162,76.570323,9762.716208
359.263561,38.285162,95.712904,9801.001370
359.266055,38.285162,38.285162,9877.571693
359.268548,-0.000000,95.712904,9992.427178
359.271042,-19.142581,172.283227,9839.286531
359.273536,95.712904,114.855485,9762.716208
359.276029,133.998066,153.140646,9781.858789
359.278523,95.712904,38.285162,9801.001370
359.281017,57.427742,95.712904,9858.429112
359.283511,38.285162,76.570323,9877.571693
359.286004,-19.142581,191.425808,9915.856854
359.288498,57.427742,210.568389,9877.571693
359.290992,-38.285162,172.283227,9781.858789
359.293485,172.283227,153.140646,9705.288466
359.295979,38.285162,76.570323,9839.286531
359.298473,114.855485,153.140646,9801.001370
359.300967,-0.000000,210.568389,9915.856854
359.303460,76.570323,172.283227,9934.999435
359.305954,38.285162,114.855485,9896.714274
359.308448,76.570323,114.855485,9858.429112
359.310941,95.712904,76.570323,9724.431046
359.313435,95.712904,191.425808,9877.571693
359.315929,76.570323,248.853550,9724.431046
359.318423,57.427742,287.138712,9820.143950
359.320916,114.855485,172.283227,9934.999435
359.323410,-0.000000,57.427742,9954.142016
359.325904,76.570323,76.570323,9896.714274
359.328397,95.712904,191.425808,9743.573627
359.330891,57.427742,287.138712,9801.001370
359.333385,153.140646,287.138712,9781.858789
359.335879,38.285162,210.568389,9896.714274
359.338372,76.570323,172.283227,9858.429112
359.340866,76.570323,153.140646,10088.140082
359.343360,133.998066,133.998066,9839.286531
359.345854,114.855485,172.283227,9820.143950
359.348347,153.140646,363.709035,9839.286531
359.350841,57.427742,344.566454,9801.001370
359.353294,95.712904,210.568389,9934.999435
359.355747,76.570323,153.140646,9801.001370
359.358200,-76.570323,229.710970,10030.712339
359.360653,76.570323,172.283227,9762.716208
359.363106,76.570323,191.425808,9762.716208
359.365559,114.855485,210.568389,9820.143950
359.368013,19.142581,191.425808,9858.429112
359.370466,-19.142581,210.568389,9915.856854
359.372919,19.142581,248.853550,9896.714274
359.375372,-0.000000,287.138712,9934.999435
359.377825,76.570323,210.568389,9820.143950
359.380278,76.570323,210.568389,9877.571693
359.382731,95.712904,248.853550,9743.573627
359.385184,76.570323,172.283227,9820.143950
359.387637,38.285162,153.140646,9915.856854
359.390090,38.285162,172.283227,9915.856854
359.392543,19.142581,172.283227,9877.571693
359.394996,57.427742,229.710970,9896.714274
359.397450,76.570323,210.568389,9801.001370
359.399903,153.140646,153.140646,9743.573627
359.402356,19.142581,172.283227,9915.856854
359.404809,76.570323,210.568389,9858.429112
359.407262,19.142581,191.425808,9801.001370
359.409715,57.427742,133.998066,9954.142016
359.412168,38.285162,133.998066,9934.999435
359.414621,19.142581,114.855485,9820.143950
359.417074,153.140646,191.425808,9705.288466
359.419527,133.998066,210.568389,9877.571693
359.421980,153.140646,229.710970,9781.858789
359.424433,19.142581,133.998066,9801.001370
359.426887,57.427742,133.998066,9934.999435
359.429340,-19.142581,76.570323,9877.571693
359.431793,76.570323,172.283227,9820.143950
359.434246,76.570323,210.568389,9820.143950
359.436699,95.712904,133.998066,9762.716208
359.439152,191.425808,210.568389,9762.716208
359.441605,38.285162,172.283227,9915.856854
359.444058,57.427742,95.712904,9781.858789
359.446511,19.142581,95.712904,9934.999435
359.448964,19.142581,133.998066,9858.429112
359.451446,133.998066,76.570323,9724.431046
359.453928,57.427742,114.855485,9820.143950
359.456410,133.998066,153.140646,9801.001370
359.458892,19.142581,153.140646,9781.858789
359.461374,19.142581,153.140646,9896.714274
359.463856,19.142581,95.712904,9954.142016
359.466338,191.425808,153.140646,9781.858789
359.468820,76.570323,38.285162,9743.573627
359.471303,191.425808,172.283227,9801.001370
359.473785,57.427742,95.712904,9896.714274
359.476267,114.855485,210.568389,9877.571693
359.478749,38.285162,172.283227,9896.714274
359.481231,-38.285162,95.712904,9954.142016
359.483713,76.570323,114.855485,9781.858789
359.486195,-19.142581,95.712904,9877.571693
359.488677,95.712904,153.140646,9743.573627
359.491159,114.855485,38.285162,9896.714274
359.493641,-0.000000,172.283227,9877.571693
359.496123,-19.142581,248.853550,9820.143950
359.498605,-95.712904,153.140646,9915.856854
359.501087,95.712904,229.710970,9858.429112
359.503569,19.142581,133.998066,9896.714274
359.506051,95.712904,229.710970,9820.143950
359.508533,19.142581,133.998066,9839.286531
359.511015,95.712904,191.425808,9820.143950
359.513497,38.285162,172.283227,9915.856854
359.515979,76.570323,210.568389,9934.999435
359.518461,38.285162,210.568389,9915.856854
359.520943,-19.142581,191.425808,9896.714274
359.523425,76.570323,210.568389,9762.716208
359.525907,-0.000000,191.425808,9896.714274
359.528389,114.855485,210.568389,9858.429112
359.530871,76.570323,133.998066,9915.856854
359.533353,76.570323,153.140646,9839.286531
359.535835,76.570323,172.283227,9858.429112
359.538317,19.142581,153.140646,9781.858789
359.540799,76.570323,325.423874,9724.431046
359.543281,57.427742,210.568389,9858.429112
359.545763,114.855485,248.853550,9762.716208
359.548245,19.142581,191.425808,9896.714274
359.550750,19.142581,229.710970,9877.571693
359.553255,-19.142581,210.568389,9973.284597
359.555760,95.712904,153.140646,9762.716208
359.558265,114.855485,229.710970,9743.573627
359.560769,76.570323,210.568389,9839.286531
359.563274,38.285162,172.283227,9896.714274
359.565779,57.427742,191.425808,9934.999435
359.568284,19.142581,248.853550,9839.286531
359.570789,19.142581,172.283227,9896.714274
359.573294,191.425808,287.138712,9762.716208
359.575798,95.712904,191.425808,9743.573627
359.578303,95.712904,210.568389,9762.716208
359.580808,76.570323,172.283227,9820.143950
359.583313,38.285162,172.283227,9954.142016
359.585818,38.285162,267.996131,9820.143950
359.588322,-19.142581,114.855485,9915.856854
359.590827,153.140646,114.855485,9781.858789
359.593332,76.570323,114.855485,9762.716208
359.595837,95.712904,172.283227,9820.143950
359.598342,57.427742,95.712904,9781.858789
359.600847,76.570323,172.283227,9877.571693
359.603351,19.142581,191.425808,9801.001370
359.605856,-57.427742,114.855485,9915.856854
359.608361,76.570323,153.140646,9915.856854
359.610866,19.142581,95.712904,9934.999435
359.613371,133.998066,172.283227,9762.716208
359.615875,-19.142581,133.998066,9839.286531
359.618380,114.855485,114.855485,9820.143950
359.620885,95.712904,95.712904,9896.714274
359.623390,95.712904,95.712904,9858.429112
359.625895,19.142581,153.140646,9896.714274
359.628400,57.427742,172.283227,9896.714274
359.630904,172.283227,229.710970,9724.431046
359.633409,-19.142581,57.427742,9934.999435
359.635914,172.283227,38.285162,9762.716208
359.638419,38.285162,76.570323,9858.429112
359.640924,114.855485,172.283227,9762.716208
359.643428,38.285162,210.568389,9915.856854
359.645933,114.855485,76.570323,9781.858789
359.648438,114.855485,95.712904,9801.001370
359.650959,38.285162,95.712904,9896.714274
359.653480,95.712904,114.855485,9877.571693
359.656000,38.285162,133.998066,9877.571693
359.658521,57.427742,76.570323,9820.143950
359.661042,19.142581,95.712904,9954.142016
359.663562,153.140646,76.570323,9820.143950
359.666083,114.855485,153.140646,9743.573627
359.668604,133.998066,210.568389,9877.571693
359.671125,19.142581,114.855485,9820.143950
359.673645,-95.712904,172.283227,9839.286531
359.676166,133.998066,114.855485,9762.716208
359.678687,19.142581,95.712904,9992.427178
359.681208,172.283227,76.570323,9762.716208
359.683728,114.855485,267.996131,9724.431046
359.686249,172.283227,267.996131,9820.143950
359.688770,76.570323,172.283227,9801.001370
359.691290,38.285162,38.285162,9839.286531
359.693811,-0.000000,133.998066,9896.714274
359.696332,-57.427742,114.855485,9992.427178
359.698853,95.712904,210.568389,9743.573627
359.701373,19.142581,172.283227,9896.714274
359.703894,191.425808,229.710970,9858.429112
359.706415,-0.000000,191.425808,9801.001370
359.708936,76.570323,172.283227,9762.716208
359.711456,76.570323,229.710970,9820.143950
359.713977,-19.142581,229.710970,9915.856854
359.716498,38.285162,210.568389,9801.001370
359.719018,76.570323,172.283227,9820.143950
359.721539,133.998066,210.568389,9820.143950
359.724060,19.142581,133.998066,9839.286531
359.726581,153.140646,133.998066,9820.143950
359.729101,76.570323,191.425808,9877.571693
359.731622,57.427742,344.566454,9896.714274
359.734143,-0.000000,325.423874,9801.001370
359.736664,-19.142581,191.425808,9839.286531
359.739184,57.427742,153.140646,9743.573627
359.741705,-38.285162,95.712904,9954.142016
359.744226,153.140646,133.998066,9743.573627
359.746746,19.142581,267.996131,9896.714274
359.749267,133.998066,229.710970,9877.571693
359.751749,95.712904,248.853550,9934.999435
359.754231,153.140646,344.566454,9801.001370
359.756713,19.142581,210.568389,9781.858789
359.759195,95.712904,229.710970,9896.714274
359.761677,38.285162,133.998066,9762.716208
359.764159,19.142581,95.712904,9915.856854
359.766641,133.998066,172.283227,9762.716208
359.769123,76.570323,229.710970,9934.999435
359.771604,76.570323,229.710970,9762.716208
359.774086,76.570323,229.710970,9762.716208
359.776568,153.140646,325.423874,9839.286531
359.779050,114.855485,172.283227,9762.716208
359.781532,-0.000000,133.998066,9896.714274
359.784014,153.140646,153.140646,9877.571693
359.786496,-19.142581,57.427742,9934.999435
359.788978,76.570323,210.568389,9820.143950
359.791460,95.712904,248.853550,9934.999435
359.793942,153.140646,287.138712,9781.858789
359.796424,76.570323,153.140646,9762.716208
359.798906,38.285162,114.855485,9915.856854
359.801388,38.285162,57.427742,9781.858789
359.803869,-19.142581,95.712904,9954.142016
359.806351,133.998066,172.283227,9762.716208
359.808833,57.427742,153.140646,9686.145885
359.811315,210.568389,267.996131,9858.429112
359.813797,19.142581,153.140646,9724.431046
359.816279,57.427742,133.998066,9934.999435
359.818761,19.142581,153.140646,9858.429112
359.821243,-114.855485,38.285162,9954.142016
359.823725,76.570323,153.140646,9762.716208
359.826207,19.142581,76.570323,9801.001370
359.828689,210.568389,114.855485,9762.716208
359.831171,-19.142581,95.712904,9934.999435
359.833653,76.570323,210.568389,9820.143950
359.836134,76.570323,172.283227,9858.429112
359.838616,210.568389,133.998066,9801.001370
359.841098,95.712904,114.855485,9858.429112
359.843580,38.285162,57.427742,9877.571693
359.846062,76.570323,172.283227,9820.143950
359.848544,-0.000000,95.712904,9934.999435
359.850998,95.712904,229.710970,9801.001370
359.853452,76.570323,229.710970,9820.143950
359.855907,114.855485,95.712904,9858.429112
359.858361,114.855485,95.712904,9896.714274
359.860815,19.142581,95.712904,9877.571693
359.863269,76.570323,153.140646,9781.858789
359.865724,19.142581,153.140646,9858.429112
359.868178,19.142581,153.140646,9801.001370
359.870632,-57.427742,210.568389,9896.714274
359.873086,172.283227,153.140646,10011.569758
359.875540,19.142581,57.427742,10011.569758
359.877995,153.140646,114.855485,9724.431046
359.880449,114.855485,191.425808,9743.573627
359.882903,133.998066,248.853550,9896.714274
359.885357,76.570323,210.568389,9858.429112
359.887811,-19.142581,114.855485,9973.284597
359.890266,38.285162,172.283227,9915.856854
359.892720,-38.285162,114.855485,9973.284597
359.895174,210.568389,267.996131,9820.143950
359.897628,133.998066,172.283227,9762.716208
359.900083,114.855485,229.710970,9839.286531
359.902537,-0.000000,191.425808,9820.143950
359.904991,-19.142581,153.140646,9954.142016
359.907445,19.142581,248.853550,9801.001370
359.909899,-19.142581,114.855485,9915.856854
359.912354,229.710970,153.140646,9781.858789
359.914808,19.142581,210.568389,9781.858789
359.917262,133.998066,287.138712,9877.571693
359.919716,76.570323,267.996131,9915.856854
359.922170,95.712904,287.138712,9781.858789
359.924625,38.285162,229.710970,9896.714274
359.927079,57.427742,153.140646,9934.999435
359.929533,76.570323,153.140646,9858.429112
359.931987,57.427742,133.998066,9877.571693
359.934442,172.283227,210.568389,9724.431046
359.936896,-19.142581,191.425808,9858.429112
359.939350,76.570323,267.996131,9781.858789
359.941804,114.855485,114.855485,9839.286531
359.944258,57.427742,133.998066,9973.284597
359.946713,19.142581,114.855485,9934.999435
359.949148,57.427742,95.712904,9839.286531
359.951583,133.998066,267.996131,9724.431046
359.954018,76.570323,210.568389,9877.571693
359.956454,76.570323,191.425808,9820.143950
359.958889,57.427742,191.425808,9973.284597
359.961324,114.855485,172.283227,9877.571693
359.963759,95.712904,133.998066,9858.429112
359.966194,76.570323,114.855485,9839.286531
359.968629,76.570323,229.710970,9762.716208
359.971065,76.570323,153.140646,9858.429112
359.973500,-38.285162,191.425808,9839.286531
359.975935,38.285162,210.568389,9915.856854
359.978370,95.712904,153.140646,9801.001370
359.980805,57.427742,153.140646,9877.571693
359.983240,76.570323,76.570323,9781.858789
359.985676,153.140646,95.712904,9801.001370
359.988111,95.712904,133.998066,9934.999435
359.990546,38.285162,114.855485,9915.856854
359.992981,-95.712904,133.998066,9896.714274
359.995416,153.140646,95.712904,9781.858789
359.997851,19.142581,114.855485,9934.999435
360.000287,172.283227,76.570323,9762.716208
360.002722,95.712904,114.855485,9801.001370
360.005157,133.998066,248.853550,9839.286531
360.007592,19.142581,172.283227,9801.001370
360.010027,57.427742,229.710970,9877.571693
360.012462,76.570323,114.855485,9839.286531
360.014898,-0.000000,57.427742,9934.999435
360.017333,95.712904,95.712904,9839.286531
360.019768,76.570323,114.855485,9858.429112
360.022203,229.710970,210.568389,9724.431046
360.024638,76.570323,114.855485,9839.286531
360.027074,57.427742,114.855485,9877.571693
360.029509,57.427742,95.712904,9896.714274
360.031944,-57.427742,57.427742,9934.999435
360.034379,-0.000000,191.425808,9820.143950
360.036814,57.427742,114.855485,9839.286531
360.039249,153.140646,210.568389,9743.573627
360.041685,57.427742,95.712904,9820.143950
360.044120,210.568389,114.855485,9743.573627
