#time,accel_x,accel_y,accel_z
271.479524,19.142581,172.283227,9896.714274
271.482500,-0.000000,153.140646,9801.001370
271.485475,19.142581,133.998066,9896.714274
271.488451,19.142581,248.853550,9896.714274
271.491426,153.140646,210.568389,9934.999435
271.494402,133.998066,229.710970,9839.286531
271.497378,38.285162,267.996131,9820.143950
271.500353,95.712904,248.853550,9839.286531
271.503329,57.427742,172.283227,9934.999435
271.506304,19.142581,133.998066,9801.001370
271.509280,38.285162,133.998066,9839.286531
271.512255,-19.142581,114.855485,9915.856854
271.515231,76.570323,114.855485,9877.571693
271.518206,57.427742,210.568389,9934.999435
271.521182,57.427742,287.138712,9820.143950
271.524158,57.427742,229.710970,9839.286531
271.527133,19.142581,95.712904,9667.003304
271.530109,57.427742,0.000000,9801.001370
271.533084,153.140646,19.142581,9934.999435
271.536060,19.142581,76.570323,9686.145885
271.539035,95.712904,248.853550,9934.999435
271.542011,95.712904,248.853550,9934.999435
271.544987,153.140646,191.425808,9934.999435
271.547962,76.570323,153.140646,9839.286531
271.550785,229.710970,210.568389,10030.712339
271.553596,76.570323,114.855485,9762.716208
271.556407,38.285162,95.712904,9820.143950
271.559218,133.998066,76.570323,9915.856854
271.562029,57.427742,248.853550,9877.571693
271.564840,-19.142581,210.568389,9724.431046
271.567651,153.140646,248.853550,9973.284597
271.570461,38.285162,210.568389,9781.858789
271.573272,57.427742,133.998066,9743.573627
271.576083,76.570323,114.855485,9762.716208
271.578894,19.142581,95.712904,9686.145885
271.581705,38.285162,172.283227,9724.431046
271.584516,95.712904,172.283227,9801.001370
271.587327,114.855485,210.568389,9762.716208
271.590137,57.427742,153.140646,9934.999435
271.592948,153.140646,191.425808,9954.142016
271.595759,38.285162,114.855485,9954.142016
271.598570,-19.142581,172.283227,9915.856854
271.601381,95.712904,153.140646,9954.142016
271.604192,76.570323,153.140646,9877.571693
271.607003,95.712904,210.568389,9877.571693
271.609813,95.712904,191.425808,9934.999435
271.612624,57.427742,210.568389,9743.573627
271.615435,95.712904,210.568389,9877.571693
271.618246,76.570323,114.855485,9877.571693
271.621057,76.570323,153.140646,9781.858789
271.623868,76.570323,133.998066,9781.858789
271.626679,114.855485,210.568389,9762.716208
271.629489,114.855485,114.855485,9762.716208
271.632300,19.142581,153.140646,9839.286531
271.635111,76.570323,153.140646,9877.571693
271.637922,-0.000000,172.283227,9839.286531
271.640733,76.570323,114.855485,9820.143950
271.643544,76.570323,229.710970,9877.571693
271.646355,76.570323,172.283227,9820.143950
271.649165,95.712904,210.568389,9762.716208
271.651976,19.142581,191.425808,9896.714274
271.654787,76.570323,210.568389,9896.714274
271.657598,133.998066,153.140646,9820.143950
271.660409,57.427742,248.853550,9743.573627
271.663116,57.427742,114.855485,9839.286531
271.665822,95.712904,210.568389,9877.571693
271.668529,57.427742,191.425808,9877.571693
271.671235,57.427742,191.425808,9877.571693
271.673942,76.570323,191.425808,9877.571693
271.676649,57.427742,210.568389,9934.999435
271.679355,114.855485,210.568389,9934.999435
271.682062,76.570323,114.855485,9877.571693
271.684769,19.142581,133.998066,9781.858789
271.687475,153.140646,95.712904,9858.429112
271.690182,76.570323,210.568389,9839.286531
271.692889,19.142581,133.998066,9781.858789
271.695595,-19.142581,153.140646,9896.714274
271.698302,76.570323,114.855485,9762.716208
271.701008,76.570323,172.283227,9820.143950
271.703715,19.142581,133.998066,9839.286531
271.706422,95.712904,95.712904,9820.143950
271.709128,76.570323,172.283227,9858.429112
271.711835,76.570323,172.283227,9839.286531
271.714542,38.285162,172.283227,9896.714274
271.717248,57.427742,229.710970,9896.714274
271.719955,57.427742,172.283227,9915.856854
271.722661,114.855485,114.855485,9801.001370
271.725368,57.427742,133.998066,9934.999435
271.728075,95.712904,133.998066,9992.427178
271.730781,76.570323,210.568389,9877.571693
271.733488,95.712904,191.425808,9934.999435
271.736195,76.570323,248.853550,9954.142016
271.738901,76.570323,172.283227,9820.143950
271.741608,19.142581,172.283227,9781.858789
271.744315,133.998066,114.855485,9762.716208
271.747021,114.855485,114.855485,9820.143950
271.749728,114.855485,114.855485,9801.001370
271.752434,76.570323,172.283227,9839.286531
271.755141,95.712904,133.998066,9934.999435
271.757848,19.142581,172.283227,9839.286531
271.760554,19.142581,210.568389,9877.571693
271.763261,57.427742,172.283227,9820.143950
271.765968,95.712904,114.855485,9896.714274
271.768674,57.427742,114.855485,9896.714274
271.771309,57.427742,95.712904,9801.001370
271.773943,76.570323,172.283227,9877.571693
271.776577,133.998066,153.140646,9877.571693
271.779212,38.285162,191.425808,9915.856854
271.781846,76.570323,229.710970,9877.571693
271.784480,76.570323,153.140646,9877.571693
271.787115,76.570323,210.568389,9762.716208
271.789749,95.712904,153.140646,9877.571693
271.792384,19.142581,153.140646,9858.429112
271.795018,76.570323,153.140646,9820.143950
271.797652,114.855485,172.283227,9762.716208
271.800287,76.570323,229.710970,9877.571693
271.802921,76.570323,210.568389,9877.571693
271.805555,38.285162,114.855485,9743.573627
271.808190,76.570323,172.283227,9762.716208
271.810824,38.285162,153.140646,9896.714274
271.813459,19.142581,95.712904,9743.573627
271.816093,95.712904,114.855485,9820.143950
271.818727,133.998066,114.855485,9762.716208
271.821362,76.570323,210.568389,9762.716208
271.823996,114.855485,153.140646,9877.571693
271.826630,76.570323,229.710970,9820.143950
271.829265,114.855485,114.855485,9839.286531
271.831899,114.855485,172.283227,9858.429112
271.834533,76.570323,153.140646,9877.571693
271.837168,57.427742,114.855485,9839.286531
271.839802,76.570323,229.710970,9877.571693
271.842437,76.570323,191.425808,9877.571693
271.845071,19.142581,210.568389,9839.286531
271.847705,76.570323,210.568389,9820.143950
271.850340,76.570323,172.283227,9877.571693
271.852974,76.570323,114.855485,9858.429112
271.855608,57.427742,95.712904,9858.429112
271.858243,19.142581,172.283227,9858.429112
271.860877,19.142581,248.853550,9801.001370
271.863512,19.142581,210.568389,9839.286531
271.866146,76.570323,172.283227,9820.143950
271.868780,114.855485,172.283227,9801.001370
271.871415,76.570323,114.855485,9820.143950
271.874049,76.570323,114.855485,9896.714274
271.876635,-0.000000,172.283227,9877.571693
271.879221,114.855485,114.855485,9877.571693
271.881807,19.142581,153.140646,9896.714274
271.884393,76.570323,210.568389,9858.429112
271.886979,76.570323,133.998066,9915.856854
271.889565,38.285162,114.855485,9915.856854
271.892151,19.142581,133.998066,9801.001370
271.894737,133.998066,210.568389,9877.571693
271.897323,133.998066,114.855485,9858.429112
271.899909,76.570323,172.283227,9877.571693
271.902495,114.855485,172.283227,9762.716208
271.905081,76.570323,172.283227,9877.571693
271.907667,19.142581,191.425808,9801.001370
271.910253,76.570323,172.283227,9820.143950
271.912839,114.855485,114.855485,9877.571693
271.915425,57.427742,114.855485,9781.858789
271.918010,19.142581,191.425808,9839.286531
271.920596,76.570323,210.568389,9820.143950
271.923182,57.427742,114.855485,9839.286531
271.925768,57.427742,95.712904,9839.286531
271.928354,95.712904,210.568389,9877.571693
271.930940,76.570323,133.998066,9839.286531
271.933526,57.427742,95.712904,9839.286531
271.936112,76.570323,114.855485,9762.716208
271.938698,76.570323,114.855485,9877.571693
271.941284,76.570323,114.855485,9877.571693
271.943870,76.570323,191.425808,9877.571693
271.946456,76.570323,210.568389,9820.143950
271.949042,76.570323,172.283227,9877.571693
271.951628,38.285162,172.283227,9915.856854
271.954214,133.998066,153.140646,9781.858789
271.956800,57.427742,95.712904,9858.429112
271.959386,76.570323,172.283227,9877.571693
271.961972,57.427742,114.855485,9915.856854
271.964558,76.570323,191.425808,9839.286531
271.967144,38.285162,153.140646,9877.571693
271.969730,114.855485,114.855485,9858.429112
271.972316,76.570323,210.568389,9762.716208
271.974902,76.570323,172.283227,9762.716208
271.977488,76.570323,229.710970,9743.573627
271.980039,19.142581,153.140646,9781.858789
271.982590,57.427742,210.568389,9896.714274
271.985141,76.570323,210.568389,9820.143950
271.987692,19.142581,133.998066,9896.714274
271.990243,76.570323,114.855485,9877.571693
271.992794,76.570323,153.140646,9820.143950
271.995345,57.427742,191.425808,9934.999435
271.997896,76.570323,114.855485,9858.429112
272.000448,57.427742,153.140646,9877.571693
272.002999,57.427742,133.998066,9877.571693
272.005550,57.427742,172.283227,9896.714274
272.008101,76.570323,172.283227,9877.571693
272.010652,76.570323,210.568389,9820.143950
272.013203,57.427742,133.998066,9934.999435
272.015754,76.570323,114.855485,9858.429112
272.018305,57.427742,114.855485,9801.001370
272.020856,-0.000000,191.425808,9839.286531
272.023407,19.142581,153.140646,9839.286531
272.025958,114.855485,172.283227,9801.001370
272.028509,114.855485,114.855485,9820.143950
272.031061,76.570323,153.140646,9820.143950
272.033612,38.285162,229.710970,9724.431046
272.036163,95.712904,153.140646,9820.143950
272.038714,133.998066,153.140646,9839.286531
272.041265,19.142581,153.140646,9781.858789
272.043816,19.142581,191.425808,9858.429112
272.046367,19.142581,133.998066,9896.714274
272.048918,-0.000000,153.140646,9896.714274
272.051469,76.570323,114.855485,9877.571693
272.054020,76.570323,172.283227,9877.571693
272.056571,19.142581,172.283227,9839.286531
272.059123,153.140646,133.998066,9934.999435
272.061674,38.285162,76.570323,9877.571693
272.064225,38.285162,210.568389,9896.714274
272.066776,57.427742,153.140646,9877.571693
272.069327,76.570323,153.140646,9877.571693
272.071878,57.427742,133.998066,9743.573627
272.074429,76.570323,172.283227,9820.143950
272.076980,57.427742,95.712904,9801.001370
272.079531,57.427742,172.283227,9743.573627
272.081902,19.142581,133.998066,9820.143950
272.084273,19.142581,191.425808,9801.001370
272.086645,95.712904,114.855485,9820.143950
272.089016,76.570323,114.855485,9877.571693
272.091387,19.142581,153.140646,9820.143950
272.093758,19.142581,153.140646,9801.001370
272.096129,114.855485,153.140646,9877.571693
272.098500,19.142581,191.425808,9858.429112
272.100871,133.998066,229.710970,9877.571693
272.103242,76.570323,133.998066,9801.001370
272.105613,133.998066,210.568389,9877.571693
272.107985,19.142581,153.140646,9801.001370
272.110356,76.570323,172.283227,9839.286531
272.112727,38.285162,76.570323,9801.001370
272.115098,76.570323,210.568389,9858.429112
272.117469,19.142581,153.140646,9896.714274
272.119840,57.427742,191.425808,9934.999435
272.122211,38.285162,172.283227,9915.856854
272.124582,19.142581,153.140646,9839.286531
272.126954,95.712904,114.855485,9820.143950
272.129325,76.570323,153.140646,9858.429112
272.131696,19.142581,153.140646,9781.858789
272.134067,19.142581,172.283227,9801.001370
272.136438,114.855485,114.855485,9858.429112
272.138809,95.712904,95.712904,9839.286531
272.141180,19.142581,153.140646,9896.714274
272.143551,76.570323,210.568389,9820.143950
272.145922,76.570323,172.283227,9839.286531
272.148294,19.142581,172.283227,9896.714274
272.150665,114.855485,210.568389,9858.429112
272.153036,57.427742,114.855485,9801.001370
272.155407,19.142581,172.283227,9839.286531
272.157778,76.570323,76.570323,9915.856854
272.160149,57.427742,95.712904,9858.429112
272.162520,76.570323,172.283227,9858.429112
272.164891,95.712904,114.855485,9820.143950
272.167262,76.570323,172.283227,9762.716208
272.169634,76.570323,191.425808,9839.286531
272.172005,76.570323,133.998066,9896.714274
272.174376,19.142581,172.283227,9820.143950
272.176792,76.570323,191.425808,9858.429112
272.179209,57.427742,133.998066,9877.571693
272.181625,19.142581,153.140646,9839.286531
272.184042,19.142581,153.140646,9896.714274
272.186458,19.142581,248.853550,9820.143950
272.188874,114.855485,114.855485,9858.429112
272.191291,76.570323,172.283227,9762.716208
272.193707,76.570323,172.283227,9877.571693
272.196124,19.142581,191.425808,9877.571693
272.198540,38.285162,76.570323,9820.143950
272.200957,38.285162,325.423874,9839.286531
272.203373,114.855485,210.568389,9839.286531
272.205790,57.427742,153.140646,9877.571693
272.208206,-0.000000,191.425808,9858.429112
272.210623,57.427742,210.568389,9877.571693
272.213039,76.570323,153.140646,9820.143950
272.215455,38.285162,153.140646,9858.429112
272.217872,19.142581,153.140646,9801.001370
272.220288,57.427742,133.998066,9877.571693
272.222705,19.142581,153.140646,9858.429112
272.225121,38.285162,133.998066,9839.286531
272.227538,19.142581,248.853550,9781.858789
272.229954,95.712904,210.568389,9762.716208
272.232371,114.855485,114.855485,9896.714274
272.234787,114.855485,114.855485,9820.143950
272.237203,95.712904,210.568389,9820.143950
272.239620,19.142581,153.140646,9781.858789
272.242036,95.712904,114.855485,9801.001370
272.244453,57.427742,153.140646,9877.571693
272.246869,76.570323,210.568389,9820.143950
272.249286,57.427742,287.138712,9896.714274
272.251702,-0.000000,153.140646,9896.714274
272.254119,38.285162,191.425808,9896.714274
272.256535,57.427742,153.140646,9877.571693
272.258951,19.142581,172.283227,9839.286531
272.261368,95.712904,95.712904,9839.286531
272.263784,76.570323,114.855485,9839.286531
272.266201,95.712904,153.140646,9877.571693
272.268617,19.142581,248.853550,9896.714274
272.271034,19.142581,191.425808,9858.429112
272.273480,19.142581,153.140646,9801.001370
272.275926,95.712904,172.283227,9858.429112
272.278373,19.142581,172.283227,9896.714274
272.280819,38.285162,76.570323,9839.286531
272.283265,76.570323,114.855485,9820.143950
272.285712,76.570323,114.855485,9820.143950
272.288158,114.855485,210.568389,9839.286531
272.290604,57.427742,153.140646,9820.143950
272.293051,19.142581,153.140646,9896.714274
272.295497,114.855485,172.283227,9858.429112
272.297943,76.570323,114.855485,9762.716208
272.300390,95.712904,172.283227,9877.571693
272.302836,38.285162,172.283227,9896.714274
272.305282,114.855485,95.712904,9781.858789
272.307729,57.427742,114.855485,9820.143950
272.310175,76.570323,153.140646,9801.001370
272.312621,114.855485,153.140646,9839.286531
272.315068,76.570323,229.710970,9820.143950
272.317514,57.427742,95.712904,9781.858789
272.319960,38.285162,172.283227,9896.714274
272.322407,19.142581,172.283227,9781.858789
272.324853,76.570323,191.425808,9801.001370
272.327299,-19.142581,95.712904,9934.999435
272.329746,114.855485,172.283227,9820.143950
272.332192,19.142581,153.140646,9781.858789
272.334638,38.285162,210.568389,9934.999435
272.337085,95.712904,191.425808,9934.999435
272.339531,19.142581,191.425808,9858.429112
272.341977,38.285162,210.568389,9839.286531
272.344424,76.570323,191.425808,9858.429112
272.346870,76.570323,172.283227,9858.429112
272.349316,114.855485,153.140646,9877.571693
272.351763,76.570323,153.140646,9858.429112
272.354209,-19.142581,172.283227,9915.856854
272.356655,76.570323,114.855485,9762.716208
272.359102,114.855485,267.996131,9896.714274
272.361548,57.427742,95.712904,9839.286531
272.363994,57.427742,114.855485,9896.714274
272.366441,76.570323,172.283227,9820.143950
272.368887,38.285162,267.996131,9762.716208
272.371353,114.855485,229.710970,9858.429112
272.373820,114.855485,210.568389,9877.571693
272.376286,95.712904,172.283227,9820.143950
272.378752,19.142581,191.425808,9801.001370
272.381218,76.570323,210.568389,9839.286531
272.383685,76.570323,210.568389,9820.143950
272.386151,19.142581,229.710970,9839.286531
272.388617,76.570323,210.568389,9858.429112
272.391084,76.570323,210.568389,9839.286531
272.393550,76.570323,191.425808,9858.429112
272.396016,57.427742,191.425808,9877.571693
272.398483,19.142581,133.998066,9801.001370
272.400949,76.570323,210.568389,9858.429112
272.403415,19.142581,248.853550,9839.286531
272.405881,76.570323,153.140646,9839.286531
272.408348,-0.000000,172.283227,9915.856854
272.410814,19.142581,191.425808,9896.714274
272.413280,57.427742,114.855485,9781.858789
272.415747,76.570323,172.283227,9839.286531
272.418213,38.285162,248.853550,9820.143950
272.420679,114.855485,172.283227,9858.429112
272.423146,76.570323,153.140646,9877.571693
272.425612,57.427742,95.712904,9896.714274
272.428078,19.142581,133.998066,9839.286531
272.430544,76.570323,172.283227,9801.001370
272.433011,95.712904,210.568389,9801.001370
272.435477,57.427742,191.425808,9858.429112
272.437943,76.570323,210.568389,9762.716208
272.440410,76.570323,210.568389,9839.286531
272.442876,76.570323,114.855485,9762.716208
272.445342,-0.000000,172.283227,9781.858789
272.447809,57.427742,95.712904,9839.286531
272.450275,114.855485,114.855485,9762.716208
272.452741,57.427742,114.855485,9896.714274
272.455207,57.427742,287.138712,9839.286531
272.457674,76.570323,153.140646,9877.571693
272.460140,76.570323,153.140646,9934.999435
272.462606,19.142581,191.425808,9781.858789
272.465073,57.427742,153.140646,9934.999435
272.467539,76.570323,172.283227,9762.716208
272.470019,95.712904,114.855485,9820.143950
272.472500,76.570323,191.425808,9839.286531
272.474980,76.570323,172.283227,9877.571693
272.477461,19.142581,153.140646,9896.714274
272.479941,19.142581,191.425808,9896.714274
272.482422,19.142581,153.140646,9839.286531
272.484902,19.142581,153.140646,9781.858789
272.487383,76.570323,191.425808,9762.716208
272.489863,76.570323,172.283227,9839.286531
272.492344,133.998066,210.568389,9877.571693
272.494824,57.427742,191.425808,9934.999435
272.497305,76.570323,172.283227,9801.001370
272.499785,57.427742,95.712904,9839.286531
272.502266,76.570323,172.283227,9877.571693
272.504746,76.570323,114.855485,9858.429112
272.507227,114.855485,114.855485,9762.716208
272.509707,19.142581,133.998066,9915.856854
272.512188,-0.000000,153.140646,9858.429112
272.514668,76.570323,172.283227,9858.429112
272.517149,76.570323,229.710970,9896.714274
272.519629,114.855485,210.568389,9877.571693
272.522110,95.712904,114.855485,9839.286531
272.524590,95.712904,95.712904,9839.286531
272.527071,114.855485,172.283227,9858.429112
272.529551,38.285162,133.998066,9877.571693
272.532032,76.570323,172.283227,9839.286531
272.534512,76.570323,172.283227,9858.429112
272.536993,76.570323,229.710970,9839.286531
272.539473,76.570323,172.283227,9858.429112
272.541954,76.570323,114.855485,9801.001370
272.544434,76.570323,172.283227,9877.571693
272.546915,57.427742,248.853550,9934.999435
272.549395,95.712904,153.140646,9934.999435
272.551876,76.570323,191.425808,9820.143950
272.554356,-19.142581,191.425808,9858.429112
272.556837,57.427742,114.855485,9896.714274
272.559317,76.570323,191.425808,9839.286531
272.561798,-19.142581,133.998066,9801.001370
272.564278,19.142581,248.853550,9820.143950
272.566759,114.855485,114.855485,9839.286531
272.569253,76.570323,210.568389,9858.429112
272.571742,95.712904,172.283227,9820.143950
272.574231,38.285162,153.140646,9877.571693
272.576720,-19.142581,114.855485,9915.856854
272.579209,76.570323,229.710970,9820.143950
272.581698,133.998066,114.855485,9801.001370
272.584186,95.712904,172.283227,9820.143950
272.586675,114.855485,172.283227,9820.143950
272.589164,57.427742,153.140646,9934.999435
272.591653,19.142581,153.140646,9858.429112
272.594142,57.427742,95.712904,9801.001370
272.596631,76.570323,210.568389,9877.571693
272.599120,19.142581,172.283227,9801.001370
272.601608,76.570323,114.855485,9858.429112
272.604097,19.142581,153.140646,9858.429112
272.606586,38.285162,153.140646,9839.286531
272.609075,76.570323,153.140646,9896.714274
272.611564,153.140646,153.140646,9877.571693
272.614053,76.570323,172.283227,9820.143950
272.616542,76.570323,210.568389,9877.571693
272.619031,114.855485,210.568389,9858.429112
272.621519,57.427742,153.140646,9877.571693
272.624008,57.427742,95.712904,9801.001370
272.626497,76.570323,114.855485,9877.571693
272.628986,57.427742,153.140646,9877.571693
272.631475,57.427742,172.283227,9896.714274
272.633964,19.142581,153.140646,9781.858789
272.636453,57.427742,191.425808,9877.571693
272.638942,76.570323,172.283227,9839.286531
272.641430,153.140646,191.425808,9877.571693
272.643919,57.427742,191.425808,9934.999435
272.646408,114.855485,114.855485,9858.429112
272.648897,19.142581,153.140646,9781.858789
272.651386,76.570323,153.140646,9820.143950
272.653875,19.142581,172.283227,9820.143950
272.656364,19.142581,133.998066,9781.858789
272.658853,76.570323,114.855485,9820.143950
272.661341,76.570323,172.283227,9839.286531
272.663830,76.570323,191.425808,9820.143950
272.666319,57.427742,114.855485,9858.429112
272.668813,95.712904,172.283227,9801.001370
272.671307,19.142581,172.283227,9896.714274
272.673802,95.712904,172.283227,9877.571693
272.676296,19.142581,191.425808,9839.286531
272.678790,95.712904,172.283227,9858.429112
272.681284,114.855485,153.140646,9934.999435
272.683778,19.142581,210.568389,9858.429112
272.686272,114.855485,95.712904,9801.001370
272.688767,19.142581,133.998066,9839.286531
272.691261,76.570323,172.283227,9801.001370
272.693755,76.570323,133.998066,9781.858789
272.696249,76.570323,172.283227,9858.429112
272.698743,114.855485,172.283227,9858.429112
272.701237,76.570323,172.283227,9858.429112
272.703731,76.570323,210.568389,9858.429112
272.706226,114.855485,114.855485,9858.429112
272.708720,19.142581,153.140646,9801.001370
272.711214,76.570323,210.568389,9877.571693
272.713708,114.855485,153.140646,9877.571693
272.716202,76.570323,229.710970,9762.716208
272.718696,38.285162,133.998066,9858.429112
272.721190,95.712904,95.712904,9858.429112
272.723685,76.570323,114.855485,9820.143950
272.726179,19.142581,191.425808,9858.429112
272.728673,76.570323,210.568389,9820.143950
272.731167,57.427742,210.568389,9858.429112
272.733661,76.570323,172.283227,9877.571693
272.736155,76.570323,76.570323,9915.856854
272.738649,76.570323,133.998066,9858.429112
272.741144,76.570323,153.140646,9781.858789
272.743638,153.140646,114.855485,9896.714274
272.746132,114.855485,172.283227,9762.716208
272.748626,76.570323,210.568389,9839.286531
272.751120,95.712904,210.568389,9820.143950
272.753614,76.570323,210.568389,9839.286531
272.756108,57.427742,172.283227,9801.001370
272.758603,95.712904,153.140646,9801.001370
272.761097,76.570323,172.283227,9762.716208
272.763591,76.570323,114.855485,9820.143950
272.766085,19.142581,191.425808,9820.143950
272.768585,38.285162,114.855485,9781.858789
272.771085,19.142581,248.853550,9839.286531
272.773585,114.855485,287.138712,9896.714274
272.776085,19.142581,191.425808,9858.429112
272.778585,76.570323,153.140646,9820.143950
272.781084,95.712904,172.283227,9839.286531
272.783584,76.570323,133.998066,9801.001370
272.786084,57.427742,95.712904,9858.429112
272.788584,133.998066,172.283227,9877.571693
272.791084,76.570323,210.568389,9877.571693
272.793584,19.142581,191.425808,9781.858789
272.796084,95.712904,114.855485,9801.001370
272.798584,114.855485,172.283227,9839.286531
272.801084,114.855485,229.710970,9762.716208
272.803584,76.570323,172.283227,9762.716208
272.806084,114.855485,172.283227,9820.143950
272.808584,57.427742,95.712904,9781.858789
272.811083,76.570323,153.140646,9839.286531
272.813583,114.855485,153.140646,9839.286531
272.816083,133.998066,172.283227,9839.286531
272.818583,76.570323,172.283227,9877.571693
272.821083,76.570323,172.283227,9801.001370
272.823583,57.427742,76.570323,9820.143950
272.826083,57.427742,191.425808,9934.999435
272.828583,76.570323,191.425808,9820.143950
272.831083,76.570323,191.425808,9839.286531
272.833583,76.570323,229.710970,9877.571693
272.836083,95.712904,95.712904,9839.286531
272.838583,57.427742,76.570323,9820.143950
272.841083,95.712904,153.140646,9877.571693
272.843582,19.142581,191.425808,9839.286531
272.846082,57.427742,95.712904,9839.286531
272.848582,38.285162,133.998066,9858.429112
272.851082,19.142581,133.998066,9781.858789
272.853582,114.855485,114.855485,9877.571693
272.856082,76.570323,114.855485,9877.571693
272.858582,76.570323,172.283227,9839.286531
272.861082,19.142581,191.425808,9858.429112
272.863582,19.142581,133.998066,9858.429112
272.866082,19.142581,133.998066,9820.143950
272.868507,95.712904,114.855485,9801.001370
272.870931,57.427742,133.998066,9934.999435
272.873356,76.570323,172.283227,9877.571693
272.875781,133.998066,287.138712,9820.143950
272.878206,57.427742,133.998066,9762.716208
272.880630,38.285162,229.710970,9915.856854
272.883055,76.570323,153.140646,9762.716208
272.885480,38.285162,133.998066,9858.429112
272.887905,76.570323,210.568389,9877.571693
272.890330,38.285162,172.283227,9915.856854
272.892754,19.142581,133.998066,9839.286531
272.895179,95.712904,210.568389,9820.143950
272.897604,76.570323,172.283227,9877.571693
272.900029,76.570323,153.140646,9839.286531
272.902454,19.142581,153.140646,9839.286531
272.904878,76.570323,153.140646,9839.286531
272.907303,19.142581,191.425808,9839.286531
272.909728,76.570323,172.283227,9839.286531
272.912153,95.712904,114.855485,9877.571693
272.914578,95.712904,133.998066,9934.999435
272.917002,95.712904,210.568389,9877.571693
272.919427,76.570323,172.283227,9858.429112
272.921852,76.570323,153.140646,9820.143950
272.924277,57.427742,114.855485,9820.143950
272.926702,76.570323,153.140646,9839.286531
272.929126,19.142581,172.283227,9839.286531
272.931551,76.570323,191.425808,9877.571693
272.933976,95.712904,210.568389,9839.286531
272.936401,76.570323,172.283227,9877.571693
272.938825,76.570323,172.283227,9839.286531
272.941250,57.427742,95.712904,9896.714274
272.943675,19.142581,172.283227,9858.429112
272.946100,76.570323,172.283227,9820.143950
272.948525,19.142581,172.283227,9896.714274
272.950949,76.570323,172.283227,9762.716208
272.953374,19.142581,210.568389,9820.143950
272.955799,19.142581,153.140646,9858.429112
272.958224,95.712904,210.568389,9934.999435
272.960649,114.855485,210.568389,9839.286531
272.963073,19.142581,153.140646,9896.714274
272.965450,19.142581,153.140646,9896.714274
272.967827,76.570323,210.568389,9877.571693
272.970205,19.142581,153.140646,9801.001370
272.972582,76.570323,114.855485,9839.286531
272.974959,114.855485,229.710970,9858.429112
272.977336,76.570323,191.425808,9858.429112
272.979713,57.427742,114.855485,9858.429112
272.982090,19.142581,114.855485,9915.856854
272.984467,95.712904,95.712904,9896.714274
272.986844,57.427742,95.712904,9801.001370
272.989221,114.855485,172.283227,9877.571693
272.991598,114.855485,153.140646,9839.286531
272.993975,76.570323,172.283227,9877.571693
272.996352,76.570323,114.855485,9858.429112
272.998729,76.570323,210.568389,9820.143950
273.001106,57.427742,210.568389,9858.429112
273.003483,38.285162,172.283227,9934.999435
273.005860,57.427742,114.855485,9801.001370
273.008237,57.427742,172.283227,9934.999435
273.010614,76.570323,114.855485,9839.286531
273.012991,76.570323,172.283227,9877.571693
273.015368,38.285162,76.570323,9858.429112
273.017745,95.712904,172.283227,9801.001370
273.020122,153.140646,153.140646,9762.716208
273.022499,114.855485,210.568389,9858.429112
273.024876,19.142581,153.140646,9839.286531
273.027253,76.570323,153.140646,9820.143950
273.029630,76.570323,114.855485,9839.286531
273.032007,57.427742,153.140646,9877.571693
273.034384,19.142581,248.853550,9896.714274
273.036761,76.570323,172.283227,9801.001370
273.039138,76.570323,172.283227,9820.143950
273.041515,57.427742,172.283227,9877.571693
273.043892,19.142581,210.568389,9858.429112
273.046269,76.570323,153.140646,9877.571693
273.048646,19.142581,153.140646,9839.286531
273.051023,76.570323,153.140646,9820.143950
273.053400,19.142581,133.998066,9915.856854
273.055777,95.712904,153.140646,9858.429112
273.058155,76.570323,114.855485,9877.571693
273.060572,95.712904,210.568389,9858.429112
273.062989,76.570323,172.283227,9858.429112
273.065407,19.142581,153.140646,9896.714274
273.067824,76.570323,172.283227,9820.143950
273.070242,19.142581,153.140646,9801.001370
273.072659,95.712904,210.568389,9820.143950
273.075077,76.570323,172.283227,9877.571693
273.077494,114.855485,114.855485,9877.571693
273.079912,57.427742,229.710970,9839.286531
273.082329,76.570323,229.710970,9877.571693
273.084747,76.570323,191.425808,9820.143950
273.087164,38.285162,210.568389,9877.571693
273.089582,114.855485,210.568389,9839.286531
273.091999,133.998066,153.140646,9820.143950
273.094417,57.427742,229.710970,9839.286531
273.096834,133.998066,210.568389,9858.429112
273.099252,76.570323,229.710970,9762.716208
273.101669,133.998066,172.283227,9877.571693
273.104087,38.285162,133.998066,9934.999435
273.106504,-19.142581,153.140646,9801.001370
273.108922,76.570323,191.425808,9820.143950
273.111339,76.570323,229.710970,9839.286531
273.113757,95.712904,210.568389,9877.571693
273.116174,114.855485,114.855485,9839.286531
273.118592,19.142581,153.140646,9896.714274
273.121009,76.570323,172.283227,9762.716208
273.123427,114.855485,95.712904,9839.286531
273.125844,114.855485,210.568389,9839.286531
273.128262,19.142581,133.998066,9801.001370
273.130679,76.570323,172.283227,9762.716208
273.133097,57.427742,153.140646,9934.999435
273.135514,57.427742,76.570323,9877.571693
273.137932,19.142581,153.140646,9896.714274
273.140349,76.570323,172.283227,9858.429112
273.142767,76.570323,172.283227,9877.571693
273.145184,57.427742,210.568389,9877.571693
273.147601,57.427742,114.855485,9915.856854
273.150019,76.570323,172.283227,9858.429112
273.152436,-0.000000,191.425808,9801.001370
273.154854,19.142581,153.140646,9820.143950
273.157303,76.570323,153.140646,9858.429112
273.159752,76.570323,210.568389,9820.143950
273.162200,38.285162,133.998066,9877.571693
273.164649,76.570323,172.283227,9801.001370
273.167098,57.427742,133.998066,9934.999435
273.169547,76.570323,114.855485,9820.143950
273.171995,76.570323,210.568389,9877.571693
273.174444,114.855485,95.712904,9896.714274
273.176893,19.142581,153.140646,9839.286531
273.179342,57.427742,248.853550,9934.999435
273.181791,76.570323,172.283227,9839.286531
273.184239,-0.000000,153.140646,9781.858789
273.186688,114.855485,153.140646,9877.571693
273.189137,-0.000000,133.998066,9820.143950
273.191586,19.142581,133.998066,9896.714274
273.194035,57.427742,114.855485,9858.429112
273.196483,38.285162,248.853550,9839.286531
273.198932,114.855485,229.710970,9762.716208
273.201381,95.712904,133.998066,9954.142016
273.203830,57.427742,114.855485,9781.858789
273.206278,19.142581,133.998066,9781.858789
273.208727,76.570323,210.568389,9762.716208
273.211176,76.570323,172.283227,9877.571693
273.213625,95.712904,210.568389,9877.571693
273.216074,57.427742,191.425808,9934.999435
273.218522,57.427742,210.568389,9896.714274
273.220971,76.570323,172.283227,9858.429112
273.223420,19.142581,133.998066,9896.714274
273.225869,76.570323,172.283227,9858.429112
273.228318,57.427742,114.855485,9896.714274
273.230766,95.712904,172.283227,9934.999435
273.233215,19.142581,133.998066,9801.001370
273.235664,19.142581,153.140646,9801.001370
273.238113,19.142581,133.998066,9896.714274
273.240561,76.570323,210.568389,9762.716208
273.243010,95.712904,114.855485,9858.429112
273.245459,76.570323,191.425808,9858.429112
273.247908,114.855485,95.712904,9801.001370
273.250357,76.570323,153.140646,9877.571693
273.252805,95.712904,191.425808,9934.999435
273.255278,19.142581,133.998066,9896.714274
273.257751,19.142581,153.140646,9896.714274
273.260224,76.570323,210.568389,9762.716208
273.262697,76.570323,191.425808,9762.716208
273.265169,76.570323,210.568389,9877.571693
273.267642,57.427742,114.855485,9896.714274
273.270115,57.427742,114.855485,9915.856854
273.272588,114.855485,210.568389,9762.716208
273.275061,76.570323,172.283227,9877.571693
273.277534,76.570323,114.855485,9801.001370
273.280006,95.712904,172.283227,9858.429112
273.282479,57.427742,210.568389,9934.999435
273.284952,38.285162,191.425808,9839.286531
273.287425,76.570323,210.568389,9839.286531
273.289898,19.142581,210.568389,9839.286531
273.292370,38.285162,76.570323,9820.143950
273.294843,19.142581,153.140646,9896.714274
273.297316,38.285162,114.855485,9896.714274
273.299789,76.570323,114.855485,9820.143950
273.302262,76.570323,210.568389,9858.429112
273.304734,19.142581,248.853550,9801.001370
273.307207,57.427742,133.998066,9743.573627
273.309680,19.142581,172.283227,9896.714274
273.312153,114.855485,114.855485,9896.714274
273.314626,76.570323,114.855485,9839.286531
273.317099,76.570323,133.998066,9896.714274
273.319571,-57.427742,172.283227,9915.856854
273.322044,19.142581,191.425808,9820.143950
273.324517,95.712904,172.283227,9858.429112
273.326990,76.570323,153.140646,9839.286531
273.329463,-57.427742,191.425808,9877.571693
273.331935,114.855485,114.855485,9839.286531
273.334408,76.570323,172.283227,9839.286531
273.336881,19.142581,133.998066,9858.429112
273.339354,76.570323,114.855485,9877.571693
273.341827,57.427742,191.425808,9973.284597
273.344300,-19.142581,191.425808,9839.286531
273.346772,95.712904,114.855485,9858.429112
273.349245,95.712904,172.283227,9877.571693
273.351718,19.142581,153.140646,9781.858789
273.354209,114.855485,153.140646,9934.999435
273.356701,76.570323,210.568389,9877.571693
273.359192,19.142581,153.140646,9858.429112
273.361683,76.570323,172.283227,9839.286531
273.364174,19.142581,172.283227,9839.286531
273.366666,57.427742,114.855485,9801.001370
273.369157,76.570323,210.568389,9839.286531
273.371648,76.570323,191.425808,9858.429112
273.374140,76.570323,114.855485,9820.143950
273.376631,76.570323,210.568389,9858.429112
273.379122,19.142581,133.998066,9896.714274
273.381614,19.142581,133.998066,9801.001370
273.384105,57.427742,172.283227,9858.429112
273.386596,57.427742,133.998066,9858.429112
273.389088,76.570323,114.855485,9839.286531
273.391579,133.998066,172.283227,9877.571693
273.394070,114.855485,210.568389,9839.286531
273.396561,57.427742,114.855485,9801.001370
273.399053,57.427742,133.998066,9934.999435
273.401544,19.142581,133.998066,9896.714274
273.404035,114.855485,210.568389,9820.143950
273.406527,114.855485,229.710970,9858.429112
273.409018,57.427742,133.998066,9915.856854
273.411509,76.570323,229.710970,9820.143950
273.414001,19.142581,133.998066,9839.286531
273.416492,114.855485,210.568389,9839.286531
273.418983,114.855485,172.283227,9839.286531
273.421474,133.998066,210.568389,9839.286531
273.423966,19.142581,191.425808,9839.286531
273.426457,19.142581,191.425808,9781.858789
273.428948,76.570323,229.710970,9839.286531
273.431440,57.427742,153.140646,9934.999435
273.433931,76.570323,172.283227,9896.714274
273.436422,-0.000000,248.853550,9896.714274
273.438914,38.285162,191.425808,9896.714274
273.441405,76.570323,153.140646,9820.143950
273.443896,76.570323,172.283227,9820.143950
273.446387,114.855485,191.425808,9839.286531
273.448879,57.427742,210.568389,9858.429112
273.451370,76.570323,172.283227,9820.143950
273.453875,38.285162,172.283227,9934.999435
273.456380,57.427742,172.283227,9820.143950
273.458885,133.998066,229.710970,9839.286531
273.461390,95.712904,153.140646,9877.571693
273.463895,76.570323,210.568389,9858.429112
273.466400,76.570323,114.855485,9877.571693
273.468905,19.142581,153.140646,9839.286531
273.471410,-0.000000,191.425808,9858.429112
273.473915,19.142581,153.140646,9801.001370
273.476420,114.855485,114.855485,9820.143950
273.478925,95.712904,191.425808,9762.716208
273.481430,19.142581,172.283227,9781.858789
273.483935,114.855485,114.855485,9762.716208
273.486440,38.285162,76.570323,9858.429112
273.488945,57.427742,210.568389,9896.714274
273.491450,76.570323,229.710970,9820.143950
273.493955,76.570323,210.568389,9877.571693
273.496460,38.285162,210.568389,9839.286531
273.498965,76.570323,114.855485,9801.001370
273.501470,95.712904,153.140646,9877.571693
273.503975,76.570323,210.568389,9801.001370
273.506480,76.570323,210.568389,9820.143950
273.508985,38.285162,267.996131,9877.571693
273.511490,114.855485,210.568389,9877.571693
273.513995,19.142581,248.853550,9839.286531
273.516500,76.570323,210.568389,9801.001370
273.519005,95.712904,114.855485,9877.571693
273.521510,76.570323,153.140646,9877.571693
273.524014,19.142581,133.998066,9801.001370
273.526519,76.570323,172.283227,9858.429112
273.529024,19.142581,172.283227,9820.143950
273.531529,133.998066,210.568389,9839.286531
273.534034,153.140646,248.853550,9934.999435
273.536539,19.142581,153.140646,9839.286531
273.539044,153.140646,210.568389,9801.001370
273.541549,76.570323,114.855485,9877.571693
273.544054,76.570323,172.283227,9820.143950
273.546559,95.712904,153.140646,9820.143950
273.549064,114.855485,114.855485,9858.429112
273.551569,76.570323,153.140646,9820.143950
273.554078,19.142581,133.998066,9801.001370
273.556594,76.570323,172.283227,9839.286531
273.559111,76.570323,172.283227,9858.429112
273.561627,133.998066,114.855485,9877.571693
273.564143,95.712904,95.712904,9839.286531
273.566659,114.855485,133.998066,9877.571693
273.569176,38.285162,172.283227,9915.856854
273.571692,19.142581,153.140646,9896.714274
273.574208,114.855485,210.568389,9858.429112
273.576724,76.570323,153.140646,9877.571693
273.579240,19.142581,153.140646,9820.143950
273.581757,76.570323,191.425808,9820.143950
273.584273,76.570323,172.283227,9839.286531
273.586789,76.570323,172.283227,9858.429112
273.589305,76.570323,172.283227,9801.001370
273.591821,76.570323,210.568389,9858.429112
273.594338,95.712904,133.998066,9877.571693
273.596854,57.427742,191.425808,9934.999435
273.599370,76.570323,210.568389,9877.571693
273.601886,95.712904,210.568389,9762.716208
273.604402,38.285162,153.140646,9820.143950
273.606919,57.427742,114.855485,9896.714274
273.609435,76.570323,191.425808,9820.143950
273.611951,95.712904,114.855485,9839.286531
273.614467,76.570323,210.568389,9858.429112
273.616983,76.570323,172.283227,9858.429112
273.619500,-0.000000,229.710970,9858.429112
273.622016,76.570323,172.283227,9858.429112
273.624532,114.855485,114.855485,9762.716208
273.627048,114.855485,95.712904,9781.858789
273.629565,76.570323,114.855485,9858.429112
273.632081,76.570323,114.855485,9858.429112
273.634597,114.855485,191.425808,9762.716208
273.637113,19.142581,153.140646,9839.286531
273.639629,76.570323,172.283227,9877.571693
273.642146,76.570323,172.283227,9877.571693
273.644662,19.142581,133.998066,9896.714274
273.647178,114.855485,133.998066,9915.856854
273.649694,76.570323,172.283227,9801.001370
273.652210,114.855485,172.283227,9877.571693
273.654735,95.712904,172.283227,9801.001370
273.657259,114.855485,172.283227,9820.143950
273.659784,38.285162,76.570323,9858.429112
273.662308,76.570323,153.140646,9820.143950
273.664833,76.570323,172.283227,9877.571693
273.667357,19.142581,191.425808,9801.001370
273.669882,76.570323,210.568389,9820.143950
273.672407,76.570323,172.283227,9877.571693
273.674931,76.570323,114.855485,9839.286531
273.677456,114.855485,153.140646,9858.429112
273.679980,114.855485,172.283227,9762.716208
273.682505,76.570323,172.283227,9839.286531
273.685029,114.855485,153.140646,9839.286531
273.687554,57.427742,114.855485,9839.286531
273.690078,76.570323,210.568389,9839.286531
273.692603,76.570323,172.283227,9858.429112
273.695127,19.142581,191.425808,9896.714274
273.697652,76.570323,114.855485,9762.716208
273.700176,76.570323,153.140646,9762.716208
273.702701,114.855485,191.425808,9877.571693
273.705225,76.570323,191.425808,9762.716208
273.707750,114.855485,153.140646,9839.286531
273.710274,38.285162,133.998066,9858.429112
273.712799,191.425808,172.283227,9801.001370
273.715323,19.142581,133.998066,9858.429112
273.717848,76.570323,172.283227,9877.571693
273.720372,95.712904,153.140646,9858.429112
273.722897,95.712904,114.855485,9820.143950
273.725421,76.570323,210.568389,9858.429112
273.727946,114.855485,229.710970,9820.143950
273.730470,38.285162,153.140646,9820.143950
273.732995,76.570323,172.283227,9858.429112
273.735519,114.855485,172.283227,9877.571693
273.738044,76.570323,210.568389,9801.001370
273.740568,76.570323,172.283227,9820.143950
273.743093,19.142581,191.425808,9801.001370
273.745617,133.998066,210.568389,9820.143950
273.748142,133.998066,153.140646,9801.001370
273.750666,76.570323,229.710970,9839.286531
273.753191,76.570323,153.140646,9839.286531
273.755722,57.427742,172.283227,9781.858789
273.758252,76.570323,114.855485,9877.571693
273.760783,76.570323,114.855485,9877.571693
273.763314,57.427742,229.710970,9839.286531
273.765844,57.427742,172.283227,9762.716208
273.768375,76.570323,114.855485,9858.429112
273.770906,95.712904,172.283227,9877.571693
273.773437,76.570323,172.283227,9839.286531
273.775967,76.570323,210.568389,9839.286531
273.778498,95.712904,153.140646,9934.999435
273.781029,76.570323,172.283227,9877.571693
273.783559,76.570323,114.855485,9820.143950
273.786090,57.427742,114.855485,9896.714274
273.788621,76.570323,172.283227,9839.286531
273.791151,19.142581,172.283227,9858.429112
273.793682,19.142581,153.140646,9781.858789
273.796213,133.998066,210.568389,9877.571693
273.798743,76.570323,76.570323,9915.856854
273.801274,57.427742,114.855485,9801.001370
273.803805,19.142581,172.283227,9839.286531
273.806335,19.142581,133.998066,9839.286531
273.808866,76.570323,114.855485,9820.143950
273.811397,57.427742,133.998066,9934.999435
273.813928,114.855485,114.855485,9877.571693
273.816458,19.142581,153.140646,9801.001370
273.818989,38.285162,114.855485,9915.856854
273.821520,76.570323,191.425808,9839.286531
273.824050,19.142581,133.998066,9839.286531
273.826581,57.427742,95.712904,9839.286531
273.829112,57.427742,114.855485,9820.143950
273.831642,76.570323,153.140646,9858.429112
273.834173,76.570323,172.283227,9820.143950
273.836704,19.142581,248.853550,9896.714274
273.839234,76.570323,153.140646,9801.001370
273.841765,76.570323,153.140646,9820.143950
273.844296,133.998066,153.140646,9877.571693
273.846826,76.570323,114.855485,9801.001370
273.849357,57.427742,172.283227,9915.856854
273.851888,76.570323,172.283227,9801.001370
273.854419,76.570323,229.710970,9762.716208
273.856954,57.427742,287.138712,9781.858789
273.859489,19.142581,191.425808,9858.429112
273.862024,114.855485,153.140646,9762.716208
273.864559,57.427742,114.855485,9820.143950
273.867094,-19.142581,191.425808,9781.858789
273.869629,95.712904,114.855485,9839.286531
273.872164,76.570323,172.283227,9801.001370
273.874699,57.427742,210.568389,9934.999435
273.877234,19.142581,248.853550,9781.858789
273.879770,76.570323,210.568389,9877.571693
273.882305,114.855485,172.283227,9820.143950
273.884840,19.142581,133.998066,9896.714274
273.887375,57.427742,95.712904,9801.001370
273.889910,38.285162,172.283227,9896.714274
273.892445,38.285162,153.140646,9915.856854
273.894980,76.570323,191.425808,9858.429112
273.897515,19.142581,229.710970,9877.571693
273.900050,76.570323,153.140646,9877.571693
273.902586,95.712904,191.425808,9934.999435
273.905121,76.570323,153.140646,9820.143950
273.907656,229.710970,191.425808,9896.714274
273.910191,38.285162,76.570323,9762.716208
273.912726,76.570323,191.425808,9820.143950
273.915261,76.570323,153.140646,9839.286531
273.917796,76.570323,287.138712,9877.571693
273.920331,76.570323,172.283227,9801.001370
273.922866,114.855485,172.283227,9839.286531
273.925402,76.570323,210.568389,9820.143950
273.927937,38.285162,133.998066,9762.716208
273.930472,76.570323,172.283227,9839.286531
273.933007,76.570323,210.568389,9858.429112
273.935542,19.142581,172.283227,9896.714274
273.938077,95.712904,114.855485,9858.429112
273.940612,76.570323,114.855485,9839.286531
273.943147,114.855485,172.283227,9877.571693
273.945682,76.570323,172.283227,9877.571693
273.948218,76.570323,114.855485,9820.143950
273.950753,19.142581,191.425808,9801.001370
273.953288,114.855485,172.283227,9839.286531
273.955823,114.855485,172.283227,9820.143950
273.958361,95.712904,114.855485,9801.001370
273.960899,95.712904,210.568389,9858.429112
273.963438,76.570323,172.283227,9877.571693
273.965976,57.427742,229.710970,9801.001370
273.968514,57.427742,153.140646,9934.999435
273.971053,76.570323,153.140646,9877.571693
273.973591,76.570323,114.855485,9820.143950
273.976129,76.570323,172.283227,9877.571693
273.978668,-0.000000,172.283227,9896.714274
273.981206,76.570323,114.855485,9877.571693
273.983744,19.142581,153.140646,9801.001370
273.986283,76.570323,172.283227,9820.143950
273.988821,57.427742,191.425808,9877.571693
273.991359,114.855485,114.855485,9877.571693
273.993898,76.570323,114.855485,9839.286531
273.996436,57.427742,172.283227,9877.571693
273.998974,57.427742,114.855485,9858.429112
274.001513,76.570323,172.283227,9820.143950
274.004051,172.283227,114.855485,9915.856854
274.006589,95.712904,191.425808,9762.716208
274.009128,19.142581,133.998066,9858.429112
274.011666,57.427742,95.712904,9896.714274
274.014204,19.142581,133.998066,9858.429112
274.016743,19.142581,210.568389,9839.286531
274.019281,114.855485,133.998066,9934.999435
274.021819,95.712904,114.855485,9781.858789
274.024358,19.142581,172.283227,9896.714274
274.026896,57.427742,114.855485,9839.286531
274.029434,114.855485,114.855485,9858.429112
274.031973,133.998066,210.568389,9762.716208
274.034511,76.570323,210.568389,9839.286531
274.037049,19.142581,191.425808,9839.286531
274.039588,57.427742,172.283227,9877.571693
274.042126,76.570323,153.140646,9839.286531
274.044664,19.142581,210.568389,9801.001370
274.047203,114.855485,210.568389,9820.143950
274.049741,95.712904,229.710970,9820.143950
274.052279,76.570323,229.710970,9858.429112
274.054818,76.570323,191.425808,9839.286531
274.057356,95.712904,210.568389,9820.143950
274.059896,38.285162,95.712904,9801.001370
274.062436,76.570323,172.283227,9839.286531
274.064976,38.285162,76.570323,9762.716208
274.067516,57.427742,153.140646,9954.142016
274.070056,76.570323,133.998066,9915.856854
274.072596,19.142581,191.425808,9858.429112
274.075136,38.285162,172.283227,9724.431046
274.077676,57.427742,172.283227,9801.001370
274.080216,38.285162,114.855485,9896.714274
274.082756,76.570323,172.283227,9801.001370
274.085295,76.570323,229.710970,9858.429112
274.087835,76.570323,172.283227,9820.143950
274.090375,76.570323,114.855485,9858.429112
274.092915,76.570323,76.570323,9915.856854
274.095455,95.712904,172.283227,9858.429112
274.097995,76.570323,172.283227,9858.429112
274.100535,95.712904,172.283227,9877.571693
274.103075,76.570323,191.425808,9858.429112
274.105615,76.570323,114.855485,9820.143950
274.108155,76.570323,133.998066,9781.858789
274.110695,153.140646,114.855485,9839.286531
274.113235,19.142581,153.140646,9839.286531
274.115775,19.142581,191.425808,9896.714274
274.118315,76.570323,172.283227,9839.286531
274.120855,38.285162,210.568389,9896.714274
274.123395,76.570323,210.568389,9858.429112
274.125935,76.570323,172.283227,9877.571693
274.128475,38.285162,133.998066,9839.286531
274.131015,38.285162,133.998066,9820.143950
274.133555,76.570323,172.283227,9839.286531
274.136095,57.427742,210.568389,9858.429112
274.138635,76.570323,114.855485,9858.429112
274.141175,114.855485,114.855485,9820.143950
274.143715,95.712904,133.998066,9934.999435
274.146256,-0.000000,153.140646,9839.286531
274.148796,38.285162,153.140646,9820.143950
274.151336,114.855485,210.568389,9820.143950
274.153876,19.142581,76.570323,9839.286531
274.156417,76.570323,114.855485,9858.429112
274.158957,95.712904,210.568389,9839.286531
274.161497,114.855485,114.855485,9801.001370
274.164038,76.570323,114.855485,9877.571693
274.166578,76.570323,172.283227,9762.716208
274.169118,76.570323,172.283227,9820.143950
274.171659,-19.142581,133.998066,9858.429112
274.174199,-19.142581,267.996131,9896.714274
274.176739,57.427742,210.568389,9839.286531
274.179279,57.427742,287.138712,9839.286531
274.181820,19.142581,191.425808,9896.714274
274.184360,114.855485,172.283227,9820.143950
274.186900,76.570323,114.855485,9877.571693
274.189441,76.570323,76.570323,9896.714274
274.191981,76.570323,210.568389,9877.571693
274.194521,19.142581,153.140646,9781.858789
274.197062,76.570323,172.283227,9877.571693
274.199602,57.427742,95.712904,9896.714274
274.202142,95.712904,114.855485,9877.571693
274.204682,38.285162,133.998066,9801.001370
274.207223,38.285162,153.140646,9801.001370
274.209763,19.142581,133.998066,9801.001370
274.212303,76.570323,210.568389,9858.429112
274.214844,19.142581,133.998066,9839.286531
274.217384,114.855485,210.568389,9858.429112
274.219924,76.570323,210.568389,9858.429112
274.222465,114.855485,172.283227,9839.286531
274.225005,76.570323,172.283227,9858.429112
274.227545,95.712904,114.855485,9839.286531
274.230085,19.142581,191.425808,9781.858789
274.232626,133.998066,172.283227,9877.571693
274.235166,76.570323,172.283227,9820.143950
274.237706,57.427742,95.712904,9801.001370
274.240247,57.427742,153.140646,9973.284597
274.242787,76.570323,172.283227,9877.571693
274.245327,57.427742,172.283227,9839.286531
274.247868,95.712904,210.568389,9801.001370
274.250408,133.998066,153.140646,9877.571693
274.252948,19.142581,191.425808,9820.143950
274.255488,19.142581,191.425808,9781.858789
274.258029,76.570323,210.568389,9858.429112
274.260569,76.570323,114.855485,9801.001370
274.263111,76.570323,210.568389,9839.286531
274.265652,76.570323,172.283227,9877.571693
274.268194,114.855485,114.855485,9858.429112
274.270736,76.570323,191.425808,9858.429112
274.273277,76.570323,114.855485,9820.143950
274.275819,76.570323,210.568389,9877.571693
274.278361,19.142581,133.998066,9839.286531
274.280902,114.855485,210.568389,9858.429112
274.283444,76.570323,191.425808,9877.571693
274.285986,19.142581,172.283227,9896.714274
274.288527,76.570323,172.283227,9801.001370
274.291069,95.712904,95.712904,9801.001370
274.293611,114.855485,210.568389,9839.286531
274.296152,19.142581,76.570323,9896.714274
274.298694,19.142581,133.998066,9896.714274
274.301236,19.142581,191.425808,9896.714274
274.303777,76.570323,210.568389,9762.716208
274.306319,57.427742,229.710970,9801.001370
274.308861,76.570323,153.140646,9820.143950
274.311402,76.570323,172.283227,9762.716208
274.313944,38.285162,172.283227,9915.856854
274.316486,76.570323,172.283227,9839.286531
274.319027,95.712904,95.712904,9839.286531
274.321569,38.285162,172.283227,9896.714274
274.324111,76.570323,133.998066,9781.858789
274.326652,76.570323,114.855485,9858.429112
274.329194,76.570323,172.283227,9858.429112
274.331736,114.855485,191.425808,9877.571693
274.334277,76.570323,172.283227,9877.571693
274.336819,133.998066,172.283227,9877.571693
274.339361,133.998066,114.855485,9820.143950
274.341902,76.570323,191.425808,9877.571693
274.344443,76.570323,114.855485,9839.286531
274.346984,95.712904,229.710970,9762.716208
274.349524,57.427742,229.710970,9896.714274
274.352065,76.570323,210.568389,9858.429112
274.354606,57.427742,114.855485,9801.001370
274.357146,38.285162,172.283227,9934.999435
274.359687,19.142581,133.998066,9801.001370
274.362228,76.570323,153.140646,9839.286531
274.364768,19.142581,172.283227,9839.286531
274.367309,172.283227,191.425808,9858.429112
274.369850,76.570323,172.283227,9820.143950
274.372390,38.285162,133.998066,9839.286531
274.374931,76.570323,229.710970,9820.143950
274.377472,153.140646,172.283227,9896.714274
274.380012,57.427742,191.425808,9934.999435
274.382553,57.427742,172.283227,9934.999435
274.385094,-0.000000,153.140646,9801.001370
274.387634,57.427742,95.712904,9781.858789
274.390175,76.570323,172.283227,9820.143950
274.392715,114.855485,114.855485,9877.571693
274.395256,57.427742,153.140646,9877.571693
274.397797,19.142581,248.853550,9896.714274
274.400337,95.712904,229.710970,9877.571693
274.402878,57.427742,191.425808,9762.716208
274.405419,57.427742,191.425808,9934.999435
274.407959,76.570323,114.855485,9801.001370
274.410500,95.712904,210.568389,9762.716208
274.413041,114.855485,114.855485,9877.571693
274.415581,76.570323,172.283227,9858.429112
274.418122,153.140646,114.855485,9858.429112
274.420663,76.570323,114.855485,9839.286531
274.423203,76.570323,172.283227,9820.143950
274.425744,76.570323,210.568389,9820.143950
274.428285,76.570323,114.855485,9762.716208
274.430825,76.570323,172.283227,9877.571693
274.433366,57.427742,114.855485,9801.001370
274.435907,76.570323,210.568389,9877.571693
274.438447,76.570323,172.283227,9762.716208
274.440988,38.285162,133.998066,9839.286531
274.443529,76.570323,172.283227,9801.001370
274.446069,57.427742,133.998066,9934.999435
274.448609,19.142581,133.998066,9801.001370
274.451149,19.142581,191.425808,9801.001370
274.453690,-0.000000,248.853550,9858.429112
274.456230,76.570323,229.710970,9839.286531
274.458770,133.998066,210.568389,9820.143950
274.461310,38.285162,191.425808,9877.571693
274.463850,114.855485,153.140646,9858.429112
274.466390,76.570323,172.283227,9820.143950
274.468931,76.570323,114.855485,9877.571693
274.471471,19.142581,153.140646,9820.143950
274.474011,114.855485,172.283227,9801.001370
274.476551,153.140646,153.140646,9877.571693
274.479091,76.570323,172.283227,9820.143950
274.481632,76.570323,229.710970,9858.429112
274.484172,76.570323,114.855485,9839.286531
274.486712,114.855485,114.855485,9877.571693
274.489252,76.570323,114.855485,9877.571693
274.491792,76.570323,114.855485,9858.429112
274.494333,114.855485,172.283227,9877.571693
274.496873,114.855485,114.855485,9762.716208
274.499413,114.855485,153.140646,9839.286531
274.501953,76.570323,210.568389,9858.429112
274.504493,76.570323,172.283227,9762.716208
274.507033,114.855485,210.568389,9820.143950
274.509574,114.855485,114.855485,9877.571693
274.512114,76.570323,114.855485,9839.286531
274.514654,19.142581,172.283227,9801.001370
274.517194,57.427742,153.140646,9934.999435
274.519734,-19.142581,133.998066,9858.429112
274.522275,76.570323,153.140646,9820.143950
274.524815,76.570323,229.710970,9820.143950
274.527355,57.427742,114.855485,9801.001370
274.529895,19.142581,191.425808,9839.286531
274.532435,114.855485,153.140646,9820.143950
274.534976,76.570323,172.283227,9858.429112
274.537516,19.142581,153.140646,9858.429112
274.540056,76.570323,114.855485,9877.571693
274.542596,57.427742,172.283227,9877.571693
274.545136,57.427742,172.283227,9877.571693
274.547681,19.142581,191.425808,9839.286531
274.550222,76.570323,153.140646,9877.571693
274.552762,76.570323,210.568389,9820.143950
274.555303,57.427742,95.712904,9801.001370
274.557843,19.142581,153.140646,9801.001370
274.560384,38.285162,114.855485,9896.714274
274.562924,76.570323,229.710970,9877.571693
274.565465,76.570323,191.425808,9801.001370
274.568005,38.285162,133.998066,9877.571693
274.570546,76.570323,172.283227,9839.286531
274.573086,76.570323,210.568389,9762.716208
274.575627,76.570323,76.570323,9781.858789
274.578167,76.570323,172.283227,9762.716208
274.580708,57.427742,191.425808,9934.999435
274.583248,76.570323,172.283227,9858.429112
274.585789,114.855485,153.140646,9858.429112
274.588329,19.142581,153.140646,9801.001370
274.590870,76.570323,191.425808,9858.429112
274.593410,95.712904,95.712904,9858.429112
274.595951,76.570323,133.998066,9781.858789
274.598491,76.570323,114.855485,9820.143950
274.601032,38.285162,210.568389,9915.856854
274.603572,76.570323,191.425808,9781.858789
274.606113,76.570323,153.140646,9858.429112
274.608653,95.712904,95.712904,9801.001370
274.611194,76.570323,114.855485,9877.571693
274.613734,19.142581,153.140646,9896.714274
274.616275,76.570323,114.855485,9877.571693
274.618815,57.427742,153.140646,9934.999435
274.621356,76.570323,210.568389,9839.286531
274.623896,76.570323,229.710970,9858.429112
274.626437,76.570323,210.568389,9877.571693
274.628977,133.998066,210.568389,9858.429112
274.631518,95.712904,114.855485,9858.429112
274.634058,19.142581,172.283227,9781.858789
274.636599,76.570323,172.283227,9877.571693
274.639139,76.570323,210.568389,9858.429112
274.641680,153.140646,114.855485,9820.143950
274.644220,76.570323,114.855485,9877.571693
274.646761,38.285162,133.998066,9820.143950
274.649257,76.570323,172.283227,9820.143950
274.651754,19.142581,153.140646,9896.714274
274.654250,95.712904,133.998066,9877.571693
274.656747,38.285162,76.570323,9839.286531
274.659243,76.570323,114.855485,9762.716208
274.661739,76.570323,229.710970,9877.571693
274.664236,19.142581,133.998066,9858.429112
274.666732,114.855485,114.855485,9858.429112
274.669229,76.570323,210.568389,9858.429112
274.671725,76.570323,210.568389,9858.429112
274.674221,95.712904,114.855485,9858.429112
274.676718,57.427742,133.998066,9858.429112
274.679214,76.570323,172.283227,9820.143950
274.681710,95.712904,287.138712,9801.001370
274.684207,76.570323,172.283227,9858.429112
274.686703,114.855485,172.283227,9877.571693
274.689200,76.570323,114.855485,9839.286531
274.691696,76.570323,172.283227,9877.571693
274.694192,38.285162,133.998066,9839.286531
274.696689,19.142581,191.425808,9839.286531
274.699185,76.570323,210.568389,9820.143950
274.701682,114.855485,172.283227,9839.286531
274.704178,76.570323,133.998066,9801.001370
274.706674,153.140646,153.140646,9877.571693
274.709171,76.570323,114.855485,9839.286531
274.711667,114.855485,76.570323,9915.856854
274.714164,95.712904,153.140646,9858.429112
274.716660,153.140646,95.712904,9839.286531
274.719156,114.855485,210.568389,9839.286531
274.721653,114.855485,172.283227,9820.143950
274.724149,19.142581,172.283227,9877.571693
274.726646,19.142581,248.853550,9896.714274
274.729142,19.142581,191.425808,9858.429112
274.731638,95.712904,153.140646,9820.143950
274.734135,114.855485,76.570323,9915.856854
274.736631,57.427742,95.712904,9801.001370
274.739128,57.427742,114.855485,9801.001370
274.741624,114.855485,172.283227,9839.286531
274.744120,95.712904,76.570323,9915.856854
274.746617,19.142581,172.283227,9896.714274
274.749123,19.142581,153.140646,9801.001370
274.751629,76.570323,210.568389,9858.429112
274.754136,19.142581,172.283227,9801.001370
274.756642,114.855485,191.425808,9858.429112
274.759148,57.427742,133.998066,9934.999435
274.761654,114.855485,114.855485,9877.571693
274.764161,95.712904,210.568389,9820.143950
274.766667,76.570323,114.855485,9858.429112
274.769173,57.427742,133.998066,9934.999435
274.771679,76.570323,210.568389,9839.286531
274.774186,95.712904,114.855485,9896.714274
274.776692,114.855485,210.568389,9820.143950
274.779198,95.712904,172.283227,9877.571693
274.781704,76.570323,114.855485,9858.429112
274.784211,114.855485,38.285162,9915.856854
274.786717,76.570323,153.140646,9877.571693
274.789223,38.285162,76.570323,9858.429112
274.791729,76.570323,210.568389,9839.286531
274.794236,57.427742,153.140646,9934.999435
274.796742,95.712904,153.140646,9858.429112
274.799248,95.712904,153.140646,9877.571693
274.801754,19.142581,153.140646,9801.001370
274.804261,76.570323,172.283227,9762.716208
274.806767,114.855485,114.855485,9820.143950
274.809273,114.855485,114.855485,9877.571693
274.811779,76.570323,114.855485,9762.716208
274.814286,114.855485,172.283227,9839.286531
274.816792,76.570323,153.140646,9877.571693
274.819298,19.142581,153.140646,9858.429112
274.821804,76.570323,76.570323,9896.714274
274.824311,76.570323,172.283227,9858.429112
274.826817,76.570323,191.425808,9839.286531
274.829323,76.570323,229.710970,9801.001370
274.831829,76.570323,153.140646,9858.429112
274.834336,95.712904,172.283227,9820.143950
274.836842,19.142581,191.425808,9896.714274
274.839348,114.855485,210.568389,9820.143950
274.841854,133.998066,172.283227,9877.571693
274.844361,76.570323,172.283227,9858.429112
274.846867,38.285162,153.140646,9896.714274
274.849381,38.285162,210.568389,9896.714274
274.851895,38.285162,153.140646,9820.143950
274.854410,76.570323,114.855485,9858.429112
274.856924,19.142581,153.140646,9896.714274
274.859438,76.570323,153.140646,9877.571693
274.861952,76.570323,153.140646,9877.571693
274.864466,76.570323,172.283227,9858.429112
274.866981,57.427742,191.425808,9934.999435
274.869495,114.855485,172.283227,9801.001370
274.872009,19.142581,153.140646,9839.286531
274.874523,133.998066,114.855485,9839.286531
274.877038,57.427742,229.710970,9781.858789
274.879552,114.855485,172.283227,9820.143950
274.882066,95.712904,229.710970,9858.429112
274.884580,76.570323,153.140646,9877.571693
274.887094,76.570323,172.283227,9820.143950
274.889609,76.570323,210.568389,9839.286531
274.892123,57.427742,95.712904,9858.429112
274.894637,76.570323,172.283227,9877.571693
274.897151,95.712904,210.568389,9858.429112
274.899665,95.712904,229.710970,9762.716208
274.902180,19.142581,172.283227,9858.429112
274.904694,76.570323,172.283227,9801.001370
274.907208,114.855485,133.998066,9934.999435
274.909722,95.712904,95.712904,9839.286531
274.912237,76.570323,114.855485,9877.571693
274.914751,57.427742,133.998066,9934.999435
274.917265,-19.142581,153.140646,9801.001370
274.919779,19.142581,153.140646,9858.429112
274.922293,19.142581,133.998066,9820.143950
274.924808,38.285162,210.568389,9896.714274
274.927322,76.570323,191.425808,9858.429112
274.929836,19.142581,133.998066,9839.286531
274.932350,76.570323,114.855485,9762.716208
274.934865,57.427742,95.712904,9839.286531
274.937379,38.285162,95.712904,9915.856854
274.939893,57.427742,114.855485,9896.714274
274.942407,76.570323,210.568389,9762.716208
274.944921,95.712904,153.140646,9858.429112
274.947436,76.570323,210.568389,9820.143950
274.949915,114.855485,210.568389,9820.143950
274.952393,57.427742,114.855485,9858.429112
274.954872,57.427742,191.425808,9762.716208
274.957351,76.570323,210.568389,9839.286531
274.959830,76.570323,0.000000,9934.999435
274.962309,95.712904,95.712904,9896.714274
274.964788,76.570323,210.568389,9877.571693
274.967267,57.427742,344.566454,9839.286531
274.969746,57.427742,306.281293,9781.858789
274.972225,76.570323,153.140646,9762.716208
274.974704,57.427742,57.427742,9781.858789
274.977182,19.142581,0.000000,9820.143950
274.979661,38.285162,76.570323,9877.571693
274.982140,57.427742,287.138712,9781.858789
274.984619,153.140646,267.996131,9686.145885
274.987098,76.570323,172.283227,9820.143950
274.989577,57.427742,95.712904,9896.714274
274.992056,38.285162,114.855485,9915.856854
274.994535,76.570323,172.283227,9820.143950
274.997014,76.570323,229.710970,9801.001370
274.999492,19.142581,172.283227,9896.714274
275.001971,38.285162,172.283227,9915.856854
275.004450,38.285162,114.855485,9915.856854
275.006929,19.142581,153.140646,9801.001370
275.009408,76.570323,191.425808,9820.143950
275.011887,76.570323,229.710970,9839.286531
275.014366,38.285162,133.998066,9877.571693
275.016845,-19.142581,95.712904,9877.571693
275.019324,76.570323,114.855485,9858.429112
275.021803,19.142581,210.568389,9820.143950
275.024281,76.570323,229.710970,9762.716208
275.026760,19.142581,114.855485,9839.286531
275.029239,76.570323,172.283227,9839.286531
275.031718,57.427742,95.712904,9839.286531
275.034197,76.570323,76.570323,9915.856854
275.036676,57.427742,95.712904,9839.286531
275.039155,19.142581,191.425808,9858.429112
275.041634,76.570323,172.283227,9820.143950
275.044113,57.427742,95.712904,9858.429112
275.046591,57.427742,153.140646,9934.999435
275.049085,38.285162,114.855485,9915.856854
275.051578,76.570323,229.710970,9839.286531
275.054072,114.855485,287.138712,9801.001370
275.056565,76.570323,114.855485,9877.571693
275.059059,114.855485,95.712904,9820.143950
275.061552,114.855485,153.140646,9877.571693
275.064046,76.570323,210.568389,9801.001370
275.066539,76.570323,229.710970,9762.716208
275.069033,76.570323,191.425808,9839.286531
275.071526,19.142581,153.140646,9896.714274
275.074020,57.427742,95.712904,9839.286531
275.076513,76.570323,153.140646,9762.716208
275.079007,76.570323,172.283227,9858.429112
275.081500,76.570323,172.283227,9877.571693
275.083994,76.570323,172.283227,9877.571693
275.086487,133.998066,133.998066,9896.714274
275.088981,76.570323,172.283227,9820.143950
275.091474,95.712904,210.568389,9858.429112
275.093968,76.570323,210.568389,9762.716208
275.096461,76.570323,114.855485,9877.571693
275.098955,95.712904,153.140646,9934.999435
275.101448,76.570323,114.855485,9839.286531
275.103942,19.142581,153.140646,9896.714274
275.106435,76.570323,229.710970,9877.571693
275.108929,133.998066,229.710970,9839.286531
275.111422,76.570323,210.568389,9877.571693
275.113916,95.712904,172.283227,9820.143950
275.116409,57.427742,210.568389,9858.429112
275.118903,114.855485,172.283227,9839.286531
275.121396,19.142581,191.425808,9896.714274
275.123890,19.142581,210.568389,9820.143950
275.126383,76.570323,114.855485,9858.429112
275.128877,76.570323,114.855485,9877.571693
275.131370,95.712904,133.998066,9877.571693
275.133864,-19.142581,153.140646,9781.858789
275.136357,76.570323,172.283227,9820.143950
275.138851,76.570323,210.568389,9762.716208
275.141344,76.570323,210.568389,9801.001370
275.143838,95.712904,95.712904,9858.429112
275.146331,95.712904,114.855485,9820.143950
275.148836,95.712904,229.710970,9839.286531
275.151341,133.998066,210.568389,9820.143950
275.153847,76.570323,133.998066,9896.714274
275.156352,133.998066,172.283227,9877.571693
275.158857,57.427742,95.712904,9839.286531
275.161362,19.142581,248.853550,9858.429112
275.163867,133.998066,172.283227,9877.571693
275.166372,76.570323,210.568389,9839.286531
275.168877,133.998066,172.283227,9820.143950
275.171383,95.712904,114.855485,9839.286531
275.173888,76.570323,153.140646,9877.571693
275.176393,76.570323,153.140646,9877.571693
275.178898,76.570323,114.855485,9858.429112
275.181403,19.142581,172.283227,9801.001370
275.183908,19.142581,133.998066,9858.429112
275.186413,19.142581,76.570323,9915.856854
275.188918,76.570323,172.283227,9762.716208
275.191424,95.712904,114.855485,9801.001370
275.193929,114.855485,172.283227,9762.716208
275.196434,76.570323,114.855485,9877.571693
275.198939,76.570323,210.568389,9877.571693
275.201444,76.570323,172.283227,9877.571693
275.203949,76.570323,210.568389,9820.143950
275.206454,76.570323,133.998066,9801.001370
275.208960,19.142581,191.425808,9801.001370
275.211465,229.710970,76.570323,9858.429112
275.213970,114.855485,153.140646,9820.143950
275.216475,19.142581,153.140646,9858.429112
275.218980,76.570323,153.140646,9801.001370
275.221485,19.142581,191.425808,9858.429112
275.223990,95.712904,95.712904,9801.001370
275.226495,76.570323,172.283227,9877.571693
275.229001,19.142581,133.998066,9896.714274
275.231506,19.142581,172.283227,9896.714274
275.234011,19.142581,172.283227,9896.714274
275.236516,57.427742,191.425808,9877.571693
275.239021,76.570323,210.568389,9820.143950
275.241526,76.570323,76.570323,9915.856854
275.244031,95.712904,114.855485,9839.286531
275.246537,19.142581,153.140646,9896.714274
275.249051,76.570323,172.283227,9877.571693
275.251566,114.855485,114.855485,9801.001370
275.254081,76.570323,172.283227,9858.429112
275.256596,114.855485,172.283227,9820.143950
275.259111,114.855485,210.568389,9820.143950
275.261626,76.570323,172.283227,9839.286531
275.264141,76.570323,172.283227,9839.286531
275.266656,76.570323,287.138712,9877.571693
275.269171,95.712904,210.568389,9896.714274
275.271686,76.570323,210.568389,9839.286531
275.274201,19.142581,210.568389,9858.429112
275.276716,95.712904,210.568389,9934.999435
275.279231,19.142581,133.998066,9801.001370
275.281746,19.142581,210.568389,9781.858789
275.284261,133.998066,210.568389,9820.143950
275.286776,76.570323,210.568389,9858.429112
275.289291,95.712904,210.568389,9877.571693
275.291806,114.855485,95.712904,9858.429112
275.294321,-19.142581,191.425808,9934.999435
275.296835,19.142581,133.998066,9801.001370
275.299350,76.570323,153.140646,9877.571693
275.301865,57.427742,172.283227,9915.856854
275.304380,76.570323,210.568389,9877.571693
275.306895,76.570323,114.855485,9877.571693
275.309410,19.142581,133.998066,9896.714274
275.311925,76.570323,210.568389,9839.286531
275.314440,-0.000000,133.998066,9858.429112
275.316955,-19.142581,153.140646,9781.858789
275.319470,114.855485,172.283227,9858.429112
275.321985,114.855485,210.568389,9858.429112
275.324500,57.427742,114.855485,9858.429112
275.327015,57.427742,191.425808,9934.999435
275.329530,114.855485,210.568389,9839.286531
275.332045,76.570323,210.568389,9820.143950
275.334560,114.855485,153.140646,9858.429112
275.337075,95.712904,95.712904,9801.001370
275.339590,76.570323,210.568389,9858.429112
275.342104,76.570323,172.283227,9820.143950
275.344619,19.142581,153.140646,9820.143950
275.347134,76.570323,172.283227,9839.286531
275.349657,76.570323,114.855485,9858.429112
275.352180,114.855485,210.568389,9839.286531
275.354703,57.427742,133.998066,9877.571693
275.357225,114.855485,95.712904,9839.286531
275.359748,76.570323,191.425808,9839.286531
275.362271,76.570323,114.855485,9839.286531
275.364794,76.570323,76.570323,9781.858789
275.367316,114.855485,114.855485,9877.571693
275.369839,76.570323,153.140646,9877.571693
275.372362,95.712904,114.855485,9820.143950
275.374885,172.283227,133.998066,9877.571693
275.377407,76.570323,114.855485,9858.429112
275.379930,38.285162,133.998066,9820.143950
275.382453,76.570323,153.140646,9801.001370
275.384975,76.570323,191.425808,9762.716208
275.387498,76.570323,114.855485,9877.571693
275.390021,76.570323,172.283227,9877.571693
275.392544,38.285162,210.568389,9724.431046
275.395066,57.427742,153.140646,9915.856854
275.397589,76.570323,210.568389,9839.286531
275.400112,114.855485,172.283227,9877.571693
275.402635,114.855485,172.283227,9801.001370
275.405157,76.570323,172.283227,9877.571693
275.407680,114.855485,172.283227,9820.143950
275.410203,76.570323,172.283227,9839.286531
275.412726,76.570323,172.283227,9801.001370
275.415248,76.570323,114.855485,9801.001370
275.417771,76.570323,172.283227,9839.286531
275.420294,-19.142581,172.283227,9896.714274
275.422817,19.142581,133.998066,9801.001370
275.425339,114.855485,210.568389,9820.143950
275.427862,76.570323,210.568389,9858.429112
275.430385,76.570323,210.568389,9858.429112
275.432908,57.427742,133.998066,9877.571693
275.435430,95.712904,114.855485,9839.286531
275.437953,95.712904,210.568389,9877.571693
275.440476,76.570323,114.855485,9839.286531
275.442999,76.570323,191.425808,9820.143950
275.445521,76.570323,210.568389,9839.286531
275.448044,133.998066,172.283227,9877.571693
275.450534,114.855485,172.283227,9858.429112
275.453024,19.142581,133.998066,9839.286531
275.455514,76.570323,210.568389,9801.001370
275.458004,76.570323,172.283227,9820.143950
275.460494,76.570323,172.283227,9858.429112
275.462984,95.712904,210.568389,9877.571693
275.465474,76.570323,153.140646,9839.286531
275.467964,19.142581,191.425808,9801.001370
275.470454,76.570323,172.283227,9877.571693
275.472944,76.570323,76.570323,9896.714274
275.475434,76.570323,114.855485,9839.286531
275.477924,76.570323,172.283227,9762.716208
275.480414,114.855485,153.140646,9801.001370
275.482904,76.570323,172.283227,9877.571693
275.485394,76.570323,172.283227,9877.571693
275.487884,76.570323,114.855485,9858.429112
275.490374,76.570323,210.568389,9820.143950
275.492864,76.570323,210.568389,9877.571693
275.495354,19.142581,153.140646,9801.001370
275.497844,76.570323,172.283227,9858.429112
275.500334,76.570323,153.140646,9877.571693
275.502824,19.142581,153.140646,9801.001370
275.505314,76.570323,114.855485,9801.001370
275.507804,38.285162,114.855485,9915.856854
275.510294,76.570323,114.855485,9820.143950
275.512784,57.427742,191.425808,9934.999435
275.515274,133.998066,172.283227,9877.571693
275.517764,57.427742,114.855485,9839.286531
275.520254,19.142581,133.998066,9896.714274
275.522744,19.142581,153.140646,9858.429112
275.525234,76.570323,191.425808,9820.143950
275.527724,19.142581,153.140646,9839.286531
275.530214,76.570323,210.568389,9801.001370
275.532704,19.142581,133.998066,9801.001370
275.535194,76.570323,191.425808,9877.571693
275.537684,19.142581,153.140646,9896.714274
275.540174,19.142581,133.998066,9896.714274
275.542664,76.570323,172.283227,9858.429112
275.545154,76.570323,210.568389,9877.571693
275.547644,133.998066,210.568389,9858.429112
275.550148,76.570323,210.568389,9877.571693
275.552652,76.570323,114.855485,9762.716208
275.555156,114.855485,114.855485,9839.286531
275.557659,133.998066,172.283227,9762.716208
275.560163,76.570323,172.283227,9858.429112
275.562666,76.570323,210.568389,9839.286531
275.565170,19.142581,191.425808,9858.429112
275.567674,76.570323,172.283227,9839.286531
275.570177,76.570323,172.283227,9839.286531
275.572681,57.427742,133.998066,9877.571693
275.575184,38.285162,133.998066,9820.143950
275.577688,19.142581,153.140646,9781.858789
275.580192,38.285162,133.998066,9839.286531
275.582695,95.712904,210.568389,9820.143950
275.585199,57.427742,114.855485,9915.856854
275.587703,114.855485,114.855485,9839.286531
275.590206,57.427742,229.710970,9896.714274
275.592710,76.570323,172.283227,9839.286531
275.595213,95.712904,114.855485,9858.429112
275.597717,19.142581,172.283227,9820.143950
275.600221,76.570323,153.140646,9858.429112
275.602724,76.570323,153.140646,9820.143950
275.605228,57.427742,153.140646,9858.429112
275.607731,19.142581,172.283227,9858.429112
275.610235,57.427742,210.568389,9781.858789
275.612739,76.570323,153.140646,9820.143950
275.615242,19.142581,191.425808,9839.286531
275.617746,76.570323,153.140646,9877.571693
275.620249,38.285162,248.853550,9915.856854
275.622753,-38.285162,133.998066,9858.429112
275.625257,153.140646,172.283227,9915.856854
275.627760,57.427742,172.283227,9934.999435
275.630264,76.570323,76.570323,9724.431046
275.632768,76.570323,153.140646,9858.429112
275.635271,57.427742,133.998066,9877.571693
275.637775,114.855485,172.283227,9839.286531
275.640278,153.140646,191.425808,9934.999435
275.642782,76.570323,210.568389,9762.716208
275.645286,76.570323,114.855485,9858.429112
275.647789,76.570323,210.568389,9858.429112
275.650304,19.142581,191.425808,9801.001370
275.652818,57.427742,133.998066,9877.571693
275.655332,95.712904,114.855485,9801.001370
275.657847,38.285162,114.855485,9915.856854
275.660361,38.285162,114.855485,9858.429112
275.662876,19.142581,191.425808,9839.286531
275.665390,-0.000000,191.425808,9896.714274
275.667904,38.285162,133.998066,9820.143950
275.670419,95.712904,210.568389,9877.571693
275.672933,76.570323,172.283227,9820.143950
275.675448,76.570323,114.855485,9820.143950
275.677962,38.285162,114.855485,9858.429112
275.680476,76.570323,229.710970,9858.429112
275.682991,57.427742,248.853550,9877.571693
275.685505,133.998066,172.283227,9858.429112
275.688020,19.142581,153.140646,9839.286531
275.690534,114.855485,114.855485,9801.001370
275.693048,57.427742,95.712904,9896.714274
275.695563,38.285162,76.570323,9820.143950
275.698077,76.570323,114.855485,9858.429112
275.700592,19.142581,248.853550,9896.714274
275.703106,95.712904,210.568389,9820.143950
275.705620,19.142581,248.853550,9801.001370
275.708135,38.285162,153.140646,9858.429112
275.710649,114.855485,210.568389,9858.429112
275.713164,114.855485,114.855485,9877.571693
275.715678,76.570323,172.283227,9858.429112
275.718192,76.570323,172.283227,9839.286531
275.720707,38.285162,76.570323,9877.571693
275.723221,114.855485,210.568389,9858.429112
275.725736,114.855485,172.283227,9820.143950
275.728250,57.427742,287.138712,9839.286531
275.730764,57.427742,114.855485,9839.286531
275.733279,19.142581,153.140646,9801.001370
275.735793,57.427742,95.712904,9781.858789
275.738308,76.570323,76.570323,9896.714274
275.740822,153.140646,191.425808,9915.856854
275.743336,114.855485,191.425808,9839.286531
275.745851,38.285162,191.425808,9820.143950
275.748365,95.712904,210.568389,9858.429112
275.750888,76.570323,210.568389,9858.429112
275.753412,95.712904,153.140646,9839.286531
275.755935,57.427742,133.998066,9743.573627
275.758458,76.570323,172.283227,9820.143950
275.760981,38.285162,172.283227,9915.856854
275.763504,57.427742,133.998066,9934.999435
275.766028,95.712904,153.140646,9839.286531
275.768551,76.570323,172.283227,9858.429112
275.771074,95.712904,153.140646,9820.143950
275.773597,76.570323,172.283227,9839.286531
275.776121,114.855485,210.568389,9839.286531
275.778644,114.855485,172.283227,9801.001370
275.781167,19.142581,191.425808,9858.429112
275.783690,114.855485,153.140646,9877.571693
275.786213,76.570323,114.855485,9858.429112
275.788737,19.142581,153.140646,9781.858789
275.791260,76.570323,172.283227,9820.143950
275.793783,38.285162,76.570323,9839.286531
275.796306,114.855485,114.855485,9839.286531
275.798829,114.855485,172.283227,9858.429112
275.801353,38.285162,114.855485,9896.714274
275.803876,19.142581,172.283227,9762.716208
275.806399,114.855485,133.998066,9781.858789
275.808922,76.570323,267.996131,9915.856854
275.811446,95.712904,114.855485,9858.429112
275.813969,133.998066,172.283227,9858.429112
275.816492,19.142581,191.425808,9801.001370
275.819015,19.142581,133.998066,9801.001370
275.821538,19.142581,210.568389,9858.429112
275.824062,76.570323,210.568389,9877.571693
275.826585,114.855485,172.283227,9858.429112
275.829108,95.712904,172.283227,9877.571693
275.831631,114.855485,114.855485,9839.286531
275.834155,95.712904,153.140646,9801.001370
275.836678,57.427742,153.140646,9858.429112
275.839201,76.570323,172.283227,9858.429112
275.841724,57.427742,95.712904,9858.429112
275.844247,19.142581,133.998066,9801.001370
275.846771,76.570323,210.568389,9858.429112
275.849294,19.142581,133.998066,9801.001370
275.851817,76.570323,114.855485,9877.571693
275.854340,95.712904,210.568389,9877.571693
275.856863,114.855485,172.283227,9858.429112
275.859387,114.855485,172.283227,9877.571693
275.861910,19.142581,153.140646,9896.714274
275.864433,57.427742,114.855485,9915.856854
275.866956,19.142581,133.998066,9896.714274
275.869480,76.570323,210.568389,9839.286531
275.871973,95.712904,133.998066,9934.999435
275.874467,114.855485,172.283227,9801.001370
275.876960,114.855485,210.568389,9820.143950
275.879454,76.570323,172.283227,9877.571693
275.881947,133.998066,172.283227,9858.429112
275.884441,76.570323,172.283227,9858.429112
275.886934,76.570323,114.855485,9877.571693
275.889428,133.998066,172.283227,9839.286531
275.891921,19.142581,153.140646,9839.286531
275.894415,19.142581,153.140646,9896.714274
275.896909,57.427742,229.710970,9801.001370
275.899402,57.427742,153.140646,9877.571693
275.901896,95.712904,114.855485,9839.286531
275.904389,19.142581,153.140646,9858.429112
275.906883,76.570323,172.283227,9820.143950
275.909376,114.855485,153.140646,9858.429112
275.911870,19.142581,133.998066,9801.001370
275.914363,76.570323,210.568389,9839.286531
275.916857,114.855485,210.568389,9858.429112
275.919350,76.570323,172.283227,9820.143950
275.921844,76.570323,172.283227,9820.143950
275.924338,57.427742,191.425808,9896.714274
275.926831,95.712904,210.568389,9839.286531
275.929325,57.427742,133.998066,9934.999435
275.931818,95.712904,210.568389,9839.286531
275.934312,114.855485,114.855485,9820.143950
275.936805,19.142581,133.998066,9839.286531
275.939299,76.570323,114.855485,9820.143950
275.941792,57.427742,133.998066,9762.716208
275.944286,76.570323,153.140646,9839.286531
275.946780,76.570323,172.283227,9839.286531
275.949273,76.570323,114.855485,9762.716208
275.951767,95.712904,172.283227,9820.143950
275.954260,76.570323,172.283227,9839.286531
275.956754,76.570323,172.283227,9801.001370
275.959247,76.570323,229.710970,9858.429112
275.961741,19.142581,153.140646,9820.143950
275.964234,38.285162,172.283227,9915.856854
275.966728,76.570323,114.855485,9820.143950
275.969221,95.712904,153.140646,9877.571693
275.971729,133.998066,172.283227,9801.001370
275.974236,114.855485,153.140646,9858.429112
275.976743,133.998066,153.140646,9839.286531
275.979250,76.570323,153.140646,9762.716208
275.981758,57.427742,114.855485,9858.429112
275.984265,76.570323,114.855485,9839.286531
275.986772,76.570323,191.425808,9858.429112
275.989279,19.142581,153.140646,9839.286531
275.991787,38.285162,76.570323,9858.429112
275.994294,76.570323,172.283227,9858.429112
275.996801,114.855485,114.855485,9896.714274
275.999308,76.570323,210.568389,9820.143950
276.001816,57.427742,229.710970,9858.429112
276.004323,76.570323,210.568389,9820.143950
276.006830,76.570323,114.855485,9858.429112
276.009337,114.855485,172.283227,9896.714274
276.011845,114.855485,95.712904,9801.001370
276.014352,76.570323,191.425808,9839.286531
276.016859,76.570323,172.283227,9858.429112
276.019366,76.570323,229.710970,9858.429112
276.021874,57.427742,287.138712,9801.001370
276.024381,38.285162,153.140646,9877.571693
276.026888,95.712904,229.710970,9820.143950
276.029395,95.712904,191.425808,9801.001370
276.031903,76.570323,153.140646,9877.571693
276.034410,57.427742,76.570323,9762.716208
276.036917,38.285162,76.570323,9858.429112
276.039424,19.142581,133.998066,9839.286531
276.041932,19.142581,153.140646,9896.714274
276.044439,19.142581,191.425808,9801.001370
276.046946,76.570323,172.283227,9820.143950
276.049453,76.570323,114.855485,9801.001370
276.051960,76.570323,172.283227,9858.429112
276.054468,19.142581,133.998066,9839.286531
276.056975,95.712904,172.283227,9877.571693
276.059482,76.570323,172.283227,9877.571693
276.061989,57.427742,133.998066,9934.999435
276.064497,19.142581,133.998066,9839.286531
276.067004,76.570323,210.568389,9858.429112
276.069511,57.427742,229.710970,9858.429112
276.072030,19.142581,133.998066,9801.001370
276.074548,76.570323,210.568389,9820.143950
276.077066,19.142581,133.998066,9839.286531
276.079585,19.142581,153.140646,9858.429112
276.082103,57.427742,172.283227,9896.714274
276.084622,38.285162,210.568389,9781.858789
276.087140,76.570323,210.568389,9762.716208
276.089659,114.855485,153.140646,9839.286531
276.092177,95.712904,153.140646,9820.143950
276.094696,57.427742,153.140646,9934.999435
276.097214,76.570323,114.855485,9839.286531
276.099732,19.142581,172.283227,9781.858789
276.102251,76.570323,172.283227,9762.716208
276.104769,57.427742,95.712904,9858.429112
276.107288,114.855485,210.568389,9858.429112
276.109806,114.855485,95.712904,9896.714274
276.112325,76.570323,153.140646,9858.429112
276.114843,76.570323,153.140646,9820.143950
276.117361,57.427742,95.712904,9839.286531
276.119880,114.855485,210.568389,9839.286531
276.122398,95.712904,114.855485,9877.571693
276.124917,114.855485,114.855485,9858.429112
276.127435,57.427742,229.710970,9820.143950
276.129954,76.570323,172.283227,9858.429112
276.132472,76.570323,172.283227,9877.571693
276.134991,76.570323,172.283227,9820.143950
276.137509,38.285162,133.998066,9858.429112
276.140027,57.427742,114.855485,9839.286531
276.142546,57.427742,95.712904,9801.001370
276.145064,19.142581,172.283227,9896.714274
276.147583,76.570323,172.283227,9877.571693
276.150101,76.570323,229.710970,9820.143950
276.152620,76.570323,114.855485,9762.716208
276.155138,76.570323,153.140646,9820.143950
276.157656,95.712904,114.855485,9820.143950
276.160175,114.855485,172.283227,9801.001370
276.162693,133.998066,153.140646,9839.286531
276.165212,19.142581,153.140646,9839.286531
276.167730,19.142581,172.283227,9858.429112
276.170249,76.570323,210.568389,9877.571693
276.172776,19.142581,191.425808,9839.286531
276.175303,95.712904,210.568389,9877.571693
276.177830,76.570323,172.283227,9820.143950
276.180357,76.570323,210.568389,9839.286531
276.182885,-0.000000,133.998066,9801.001370
276.185412,114.855485,76.570323,9896.714274
276.187939,19.142581,153.140646,9820.143950
276.190466,95.712904,172.283227,9858.429112
276.192993,76.570323,210.568389,9839.286531
276.195521,114.855485,114.855485,9801.001370
276.198048,76.570323,229.710970,9820.143950
276.200575,19.142581,172.283227,9858.429112
276.203102,95.712904,172.283227,9877.571693
276.205629,76.570323,153.140646,9877.571693
276.208157,19.142581,191.425808,9839.286531
276.210684,19.142581,153.140646,9839.286531
276.213211,57.427742,114.855485,9820.143950
276.215738,38.285162,76.570323,9877.571693
276.218265,19.142581,133.998066,9896.714274
276.220793,76.570323,229.710970,9858.429112
276.223320,76.570323,172.283227,9820.143950
276.225847,76.570323,191.425808,9858.429112
276.228374,191.425808,191.425808,9839.286531
276.230901,76.570323,95.712904,9934.999435
276.233429,95.712904,172.283227,9820.143950
276.235956,114.855485,210.568389,9858.429112
276.238483,57.427742,114.855485,9820.143950
276.241010,114.855485,229.710970,9820.143950
276.243537,57.427742,153.140646,9934.999435
276.246065,95.712904,133.998066,9877.571693
276.248592,38.285162,172.283227,9915.856854
276.251119,76.570323,210.568389,9820.143950
276.253652,114.855485,153.140646,9820.143950
276.256185,57.427742,172.283227,9877.571693
276.258719,76.570323,172.283227,9839.286531
276.261252,38.285162,172.283227,9915.856854
276.263785,76.570323,172.283227,9877.571693
276.266318,19.142581,153.140646,9896.714274
276.268851,-19.142581,172.283227,9896.714274
276.271384,76.570323,210.568389,9877.571693
276.273917,133.998066,172.283227,9858.429112
276.276451,38.285162,172.283227,9839.286531
276.278984,76.570323,172.283227,9781.858789
276.281517,114.855485,210.568389,9877.571693
276.284050,19.142581,172.283227,9801.001370
276.286583,57.427742,172.283227,9934.999435
276.289116,76.570323,172.283227,9858.429112
276.291649,-0.000000,133.998066,9858.429112
276.294183,114.855485,191.425808,9877.571693
276.296716,76.570323,172.283227,9839.286531
276.299249,19.142581,191.425808,9839.286531
276.301782,76.570323,172.283227,9839.286531
276.304315,95.712904,153.140646,9820.143950
276.306848,76.570323,172.283227,9877.571693
276.309381,19.142581,153.140646,9896.714274
276.311915,57.427742,210.568389,9877.571693
276.314448,19.142581,133.998066,9801.001370
276.316981,76.570323,114.855485,9877.571693
276.319514,76.570323,191.425808,9762.716208
276.322047,76.570323,172.283227,9762.716208
276.324580,95.712904,287.138712,9896.714274
276.327114,19.142581,153.140646,9858.429112
276.329647,76.570323,153.140646,9820.143950
276.332180,19.142581,133.998066,9896.714274
276.334713,76.570323,114.855485,9762.716208
276.337246,114.855485,172.283227,9820.143950
276.339779,76.570323,114.855485,9877.571693
276.342312,19.142581,191.425808,9839.286531
276.344846,19.142581,133.998066,9801.001370
276.347379,-19.142581,191.425808,9839.286531
276.349912,114.855485,114.855485,9877.571693
276.352445,76.570323,210.568389,9858.429112
276.354978,76.570323,191.425808,9820.143950
276.357511,76.570323,172.283227,9762.716208
276.360044,76.570323,172.283227,9820.143950
276.362578,76.570323,114.855485,9877.571693
276.365111,76.570323,153.140646,9820.143950
276.367644,76.570323,210.568389,9858.429112
276.370177,95.712904,172.283227,9801.001370
276.372710,38.285162,76.570323,9839.286531
276.375250,76.570323,153.140646,9896.714274
276.377789,76.570323,114.855485,9820.143950
276.380328,76.570323,191.425808,9858.429112
276.382868,76.570323,172.283227,9877.571693
276.385407,114.855485,191.425808,9877.571693
276.387946,76.570323,172.283227,9820.143950
276.390486,76.570323,172.283227,9877.571693
276.393025,-0.000000,210.568389,9781.858789
276.395565,57.427742,114.855485,9858.429112
276.398104,76.570323,153.140646,9877.571693
276.400643,57.427742,76.570323,9839.286531
276.403183,57.427742,248.853550,9801.001370
276.405722,38.285162,210.568389,9896.714274
276.408261,19.142581,191.425808,9896.714274
276.410801,76.570323,191.425808,9858.429112
276.413340,38.285162,114.855485,9896.714274
276.415880,57.427742,153.140646,9762.716208
276.418419,191.425808,210.568389,9781.858789
276.420958,114.855485,191.425808,9934.999435
276.423498,76.570323,172.283227,9820.143950
276.426037,19.142581,172.283227,9839.286531
276.428576,19.142581,153.140646,9858.429112
276.431116,-19.142581,191.425808,9801.001370
276.433655,76.570323,114.855485,9801.001370
276.436195,19.142581,133.998066,9896.714274
276.438734,76.570323,172.283227,9762.716208
276.441273,38.285162,133.998066,9877.571693
276.443813,76.570323,153.140646,9915.856854
276.446352,19.142581,248.853550,9801.001370
276.448891,76.570323,172.283227,9858.429112
276.451431,114.855485,114.855485,9858.429112
276.453970,19.142581,153.140646,9896.714274
276.456510,95.712904,114.855485,9877.571693
276.459049,19.142581,133.998066,9896.714274
276.461588,57.427742,153.140646,9877.571693
276.464128,76.570323,172.283227,9820.143950
276.466667,19.142581,153.140646,9801.001370
276.469206,95.712904,172.283227,9820.143950
276.471746,76.570323,210.568389,9858.429112
276.474285,76.570323,210.568389,9762.716208
276.476794,76.570323,114.855485,9801.001370
276.479302,95.712904,114.855485,9839.286531
276.481811,-19.142581,133.998066,9896.714274
276.484320,38.285162,172.283227,9915.856854
276.486828,19.142581,191.425808,9896.714274
276.489337,57.427742,191.425808,9934.999435
276.491846,114.855485,114.855485,9839.286531
276.494354,19.142581,210.568389,9801.001370
276.496863,76.570323,191.425808,9820.143950
276.499372,114.855485,114.855485,9801.001370
276.501880,114.855485,114.855485,9820.143950
276.504389,57.427742,76.570323,9781.858789
276.506897,19.142581,153.140646,9896.714274
276.509406,95.712904,210.568389,9877.571693
276.511915,95.712904,248.853550,9877.571693
276.514423,114.855485,172.283227,9877.571693
276.516932,76.570323,114.855485,9801.001370
276.519441,95.712904,114.855485,9877.571693
276.521949,57.427742,172.283227,9801.001370
276.524458,76.570323,153.140646,9801.001370
276.526967,76.570323,172.283227,9877.571693
276.529475,76.570323,153.140646,9801.001370
276.531984,76.570323,153.140646,9839.286531
276.534493,114.855485,133.998066,9934.999435
276.537001,19.142581,172.283227,9877.571693
276.539510,19.142581,191.425808,9896.714274
276.542018,19.142581,133.998066,9896.714274
276.544527,19.142581,153.140646,9801.001370
276.547036,19.142581,191.425808,9839.286531
276.549544,76.570323,172.283227,9820.143950
276.552053,114.855485,153.140646,9820.143950
276.554562,76.570323,172.283227,9801.001370
276.557070,133.998066,172.283227,9839.286531
276.559579,114.855485,210.568389,9839.286531
276.562088,19.142581,133.998066,9896.714274
276.564596,76.570323,114.855485,9877.571693
276.567105,76.570323,153.140646,9762.716208
276.569614,76.570323,172.283227,9839.286531
276.572122,95.712904,229.710970,9820.143950
276.574631,19.142581,248.853550,9801.001370
276.577152,19.142581,191.425808,9858.429112
276.579671,133.998066,210.568389,9762.716208
276.582191,114.855485,114.855485,9877.571693
276.584711,76.570323,210.568389,9877.571693
276.587231,95.712904,133.998066,9877.571693
276.589751,57.427742,153.140646,9934.999435
276.592270,76.570323,172.283227,9820.143950
276.594790,153.140646,172.283227,9934.999435
276.597310,95.712904,191.425808,9820.143950
276.599830,114.855485,191.425808,9858.429112
276.602350,76.570323,210.568389,9877.571693
276.604869,19.142581,114.855485,9934.999435
276.607389,19.142581,153.140646,9896.714274
276.609909,57.427742,133.998066,9839.286531
276.612429,19.142581,172.283227,9839.286531
276.614948,57.427742,191.425808,9877.571693
276.617468,114.855485,191.425808,9934.999435
276.619988,57.427742,114.855485,9781.858789
276.622508,76.570323,172.283227,9858.429112
276.625028,57.427742,210.568389,9801.001370
276.627547,57.427742,210.568389,9877.571693
276.630067,76.570323,210.568389,9858.429112
276.632587,114.855485,153.140646,9820.143950
276.635107,76.570323,172.283227,9801.001370
276.637626,95.712904,114.855485,9877.571693
276.640146,76.570323,172.283227,9877.571693
276.642666,95.712904,172.283227,9820.143950
276.645186,76.570323,210.568389,9820.143950
276.647706,57.427742,133.998066,9877.571693
276.650225,76.570323,114.855485,9820.143950
276.652745,76.570323,172.283227,9934.999435
276.655265,19.142581,133.998066,9801.001370
276.657793,19.142581,153.140646,9858.429112
276.660321,57.427742,191.425808,9934.999435
276.662849,38.285162,210.568389,9839.286531
276.665377,95.712904,172.283227,9858.429112
276.667905,76.570323,191.425808,9820.143950
276.670434,76.570323,172.283227,9762.716208
276.672962,114.855485,172.283227,9762.716208
276.675490,57.427742,95.712904,9858.429112
276.678018,114.855485,172.283227,9858.429112
276.680546,19.142581,153.140646,9858.429112
276.683074,19.142581,153.140646,9896.714274
276.685602,76.570323,172.283227,9877.571693
276.688130,19.142581,172.283227,9858.429112
276.690658,19.142581,191.425808,9801.001370
276.693187,19.142581,133.998066,9801.001370
276.695715,114.855485,153.140646,9877.571693
276.698243,76.570323,210.568389,9762.716208
276.700771,95.712904,172.283227,9858.429112
276.703299,57.427742,191.425808,9934.999435
276.705827,76.570323,210.568389,9858.429112
276.708355,76.570323,172.283227,9858.429112
276.710883,57.427742,172.283227,9877.571693
276.713411,76.570323,210.568389,9820.143950
276.715939,57.427742,95.712904,9801.001370
276.718468,19.142581,133.998066,9896.714274
276.720996,19.142581,210.568389,9858.429112
276.723524,76.570323,210.568389,9877.571693
276.726052,76.570323,191.425808,9762.716208
276.728580,57.427742,153.140646,9877.571693
276.731108,57.427742,95.712904,9801.001370
276.733636,76.570323,133.998066,9915.856854
276.736164,95.712904,172.283227,9839.286531
276.738692,57.427742,153.140646,9877.571693
276.741221,38.285162,210.568389,9839.286531
276.743749,76.570323,210.568389,9762.716208
276.746277,114.855485,191.425808,9858.429112
276.748805,19.142581,133.998066,9839.286531
276.751333,76.570323,210.568389,9820.143950
276.753861,76.570323,153.140646,9877.571693
276.756389,19.142581,153.140646,9839.286531
276.758917,76.570323,172.283227,9858.429112
276.761445,76.570323,172.283227,9858.429112
276.763973,133.998066,153.140646,9877.571693
276.766502,76.570323,210.568389,9877.571693
276.769030,76.570323,229.710970,9839.286531
276.771558,57.427742,248.853550,9934.999435
276.774086,76.570323,210.568389,9858.429112
276.776614,76.570323,191.425808,9839.286531
276.779150,95.712904,114.855485,9839.286531
276.781685,76.570323,133.998066,9896.714274
276.784221,57.427742,153.140646,9877.571693
276.786757,38.285162,153.140646,9915.856854
276.789292,19.142581,133.998066,9896.714274
276.791828,57.427742,191.425808,9877.571693
276.794364,38.285162,210.568389,9743.573627
276.796899,76.570323,210.568389,9858.429112
276.799435,76.570323,172.283227,9839.286531
276.801971,114.855485,172.283227,9858.429112
276.804506,76.570323,114.855485,9877.571693
276.807042,76.570323,210.568389,9877.571693
276.809578,114.855485,229.710970,9839.286531
276.812113,133.998066,191.425808,9858.429112
276.814649,19.142581,114.855485,9877.571693
276.817185,95.712904,114.855485,9877.571693
276.819720,229.710970,153.140646,9915.856854
276.822256,57.427742,95.712904,9839.286531
276.824792,76.570323,229.710970,9801.001370
276.827327,114.855485,172.283227,9839.286531
276.829863,38.285162,133.998066,9762.716208
276.832399,57.427742,229.710970,9896.714274
276.834934,114.855485,95.712904,9896.714274
276.837470,76.570323,210.568389,9877.571693
276.840006,76.570323,153.140646,9839.286531
276.842542,76.570323,172.283227,9820.143950
276.845077,-19.142581,153.140646,9781.858789
276.847613,95.712904,172.283227,9954.142016
276.850149,19.142581,191.425808,9839.286531
276.852684,76.570323,210.568389,9839.286531
276.855220,19.142581,191.425808,9896.714274
276.857756,76.570323,114.855485,9858.429112
276.860291,76.570323,172.283227,9877.571693
276.862827,57.427742,76.570323,9896.714274
276.865363,114.855485,210.568389,9877.571693
276.867898,19.142581,114.855485,9839.286531
276.870434,76.570323,210.568389,9858.429112
276.872970,76.570323,172.283227,9820.143950
276.875505,153.140646,153.140646,9934.999435
276.878041,153.140646,229.710970,9858.429112
276.880548,19.142581,133.998066,9781.858789
276.883055,57.427742,191.425808,9934.999435
276.885562,95.712904,133.998066,9934.999435
276.888069,19.142581,153.140646,9839.286531
276.890577,76.570323,114.855485,9858.429112
276.893084,57.427742,229.710970,9839.286531
276.895591,114.855485,191.425808,9762.716208
276.898098,133.998066,172.283227,9858.429112
276.900605,57.427742,114.855485,9858.429112
276.903112,19.142581,172.283227,9801.001370
276.905619,95.712904,172.283227,9839.286531
276.908126,133.998066,172.283227,9858.429112
276.910634,19.142581,133.998066,9839.286531
276.913141,57.427742,287.138712,9839.286531
276.915648,19.142581,210.568389,9858.429112
276.918155,76.570323,172.283227,9858.429112
276.920662,76.570323,210.568389,9820.143950
276.923169,76.570323,172.283227,9762.716208
276.925676,76.570323,114.855485,9820.143950
276.928183,95.712904,133.998066,9915.856854
276.930690,76.570323,229.710970,9762.716208
276.933198,76.570323,114.855485,9877.571693
276.935705,76.570323,172.283227,9820.143950
276.938212,19.142581,191.425808,9896.714274
276.940719,76.570323,172.283227,9877.571693
276.943226,95.712904,210.568389,9858.429112
276.945733,76.570323,210.568389,9877.571693
276.948240,76.570323,172.283227,9858.429112
276.950747,76.570323,153.140646,9877.571693
276.953255,76.570323,153.140646,9877.571693
276.955762,19.142581,210.568389,9820.143950
276.958269,76.570323,229.710970,9820.143950
276.960776,76.570323,172.283227,9877.571693
276.963283,76.570323,172.283227,9839.286531
276.965790,76.570323,210.568389,9858.429112
276.968297,19.142581,133.998066,9781.858789
276.970804,76.570323,172.283227,9877.571693
276.973312,19.142581,133.998066,9781.858789
276.975819,76.570323,210.568389,9877.571693
276.978326,114.855485,191.425808,9934.999435
276.980811,38.285162,210.568389,9896.714274
276.983296,-19.142581,133.998066,9781.858789
276.985781,57.427742,210.568389,9915.856854
276.988266,153.140646,114.855485,9877.571693
276.990751,19.142581,191.425808,9801.001370
276.993236,19.142581,133.998066,9781.858789
276.995721,133.998066,191.425808,9858.429112
276.998206,133.998066,210.568389,9801.001370
277.000691,95.712904,153.140646,9762.716208
277.003176,19.142581,191.425808,9781.858789
277.005661,38.285162,210.568389,9915.856854
277.008146,57.427742,133.998066,9877.571693
277.010631,114.855485,210.568389,9820.143950
277.013116,133.998066,172.283227,9858.429112
277.015601,38.285162,76.570323,9877.571693
277.018086,76.570323,76.570323,9915.856854
277.020571,76.570323,210.568389,9934.999435
277.023056,95.712904,229.710970,9781.858789
277.025541,57.427742,210.568389,9743.573627
277.028027,133.998066,210.568389,9877.571693
277.030512,57.427742,95.712904,9896.714274
277.032997,114.855485,114.855485,9801.001370
277.035482,95.712904,210.568389,9743.573627
277.037967,114.855485,153.140646,9877.571693
277.040452,76.570323,153.140646,9858.429112
277.042937,76.570323,153.140646,9877.571693
277.045422,133.998066,210.568389,9877.571693
277.047907,76.570323,172.283227,9877.571693
277.050392,57.427742,191.425808,9934.999435
277.052877,38.285162,114.855485,9915.856854
277.055362,19.142581,153.140646,9820.143950
277.057847,76.570323,76.570323,9781.858789
277.060332,95.712904,191.425808,9820.143950
277.062817,76.570323,210.568389,9877.571693
277.065302,76.570323,229.710970,9762.716208
277.067787,76.570323,229.710970,9762.716208
277.070272,19.142581,191.425808,9858.429112
277.072757,95.712904,210.568389,9858.429112
277.075242,57.427742,153.140646,9820.143950
277.077727,133.998066,114.855485,9762.716208
277.080229,114.855485,172.283227,9877.571693
277.082731,19.142581,210.568389,9839.286531
277.085233,-19.142581,248.853550,9858.429112
277.087735,76.570323,153.140646,9839.286531
277.090236,38.285162,229.710970,9896.714274
277.092738,19.142581,95.712904,9647.860723
277.095240,-0.000000,153.140646,9858.429112
277.097742,114.855485,172.283227,9839.286531
277.100244,57.427742,57.427742,9762.716208
277.102745,19.142581,133.998066,9877.571693
277.105247,95.712904,172.283227,9877.571693
277.107749,38.285162,114.855485,9781.858789
277.110251,95.712904,153.140646,9877.571693
277.112753,76.570323,172.283227,9877.571693
277.115254,19.142581,133.998066,9839.286531
277.117756,76.570323,172.283227,9820.143950
277.120258,76.570323,248.853550,9839.286531
277.122760,19.142581,153.140646,9801.001370
277.125262,19.142581,229.710970,9820.143950
277.127764,57.427742,153.140646,9839.286531
277.130265,114.855485,153.140646,9934.999435
277.132767,57.427742,191.425808,9877.571693
277.135269,19.142581,153.140646,9839.286531
277.137771,19.142581,114.855485,9839.286531
277.140273,95.712904,210.568389,9877.571693
277.142774,95.712904,133.998066,9762.716208
277.145276,114.855485,172.283227,9801.001370
277.147778,114.855485,172.283227,9820.143950
277.150280,153.140646,114.855485,9896.714274
277.152782,19.142581,172.283227,9781.858789
277.155283,57.427742,153.140646,9877.571693
277.157785,76.570323,210.568389,9820.143950
277.160287,57.427742,133.998066,9743.573627
277.162789,76.570323,114.855485,9839.286531
277.165291,19.142581,133.998066,9839.286531
277.167792,19.142581,210.568389,9839.286531
277.170294,57.427742,153.140646,9934.999435
277.172796,76.570323,172.283227,9877.571693
277.175298,19.142581,172.283227,9781.858789
277.177800,57.427742,153.140646,9877.571693
277.180315,114.855485,172.283227,9820.143950
277.182830,57.427742,95.712904,9896.714274
277.185346,19.142581,172.283227,9858.429112
277.187861,114.855485,133.998066,9973.284597
277.190376,76.570323,172.283227,9877.571693
277.192891,133.998066,229.710970,9820.143950
277.195407,95.712904,229.710970,9839.286531
277.197922,76.570323,114.855485,9877.571693
277.200437,19.142581,133.998066,9801.001370
277.202952,38.285162,114.855485,9896.714274
277.205468,76.570323,133.998066,9858.429112
277.207983,19.142581,153.140646,9896.714274
277.210498,76.570323,229.710970,9858.429112
277.213013,76.570323,172.283227,9801.001370
277.215529,-0.000000,153.140646,9801.001370
277.218044,76.570323,191.425808,9839.286531
277.220559,19.142581,191.425808,9820.143950
277.223075,57.427742,114.855485,9781.858789
277.225590,38.285162,76.570323,9858.429112
277.228105,19.142581,133.998066,9896.714274
277.230620,76.570323,114.855485,9762.716208
277.233136,19.142581,153.140646,9896.714274
277.235651,114.855485,172.283227,9801.001370
277.238166,114.855485,172.283227,9877.571693
277.240681,114.855485,95.712904,9896.714274
277.243197,57.427742,114.855485,9781.858789
277.245712,133.998066,172.283227,9820.143950
277.248227,57.427742,133.998066,9934.999435
277.250743,38.285162,172.283227,9915.856854
277.253258,76.570323,172.283227,9858.429112
277.255773,114.855485,210.568389,9858.429112
277.258288,57.427742,95.712904,9820.143950
277.260804,76.570323,210.568389,9820.143950
277.263319,95.712904,133.998066,9934.999435
277.265834,19.142581,191.425808,9820.143950
277.268349,76.570323,191.425808,9858.429112
277.270865,57.427742,191.425808,9858.429112
277.273380,76.570323,172.283227,9762.716208
277.275895,133.998066,172.283227,9877.571693
277.278410,95.712904,172.283227,9934.999435
277.280937,95.712904,210.568389,9839.286531
277.283463,76.570323,229.710970,9839.286531
277.285989,-19.142581,153.140646,9781.858789
277.288515,76.570323,172.283227,9762.716208
277.291041,76.570323,172.283227,9858.429112
277.293567,95.712904,95.712904,9896.714274
277.296094,76.570323,172.283227,9839.286531
277.298620,76.570323,153.140646,9858.429112
277.301146,114.855485,172.283227,9762.716208
277.303672,191.425808,172.283227,9801.001370
277.306198,114.855485,210.568389,9877.571693
277.308724,19.142581,248.853550,9839.286531
277.311251,95.712904,210.568389,9877.571693
277.313777,114.855485,114.855485,9858.429112
277.316303,57.427742,153.140646,9934.999435
277.318829,19.142581,248.853550,9781.858789
277.321355,114.855485,210.568389,9762.716208
277.323881,76.570323,172.283227,9877.571693
277.326408,95.712904,114.855485,9839.286531
277.328934,38.285162,133.998066,9858.429112
277.331460,38.285162,153.140646,9915.856854
277.333986,95.712904,172.283227,9839.286531
277.336512,114.855485,210.568389,9801.001370
277.339038,114.855485,114.855485,9877.571693
277.341565,57.427742,133.998066,9934.999435
277.344091,19.142581,210.568389,9801.001370
277.346617,38.285162,210.568389,9801.001370
277.349143,76.570323,172.283227,9839.286531
277.351669,114.855485,114.855485,9839.286531
277.354195,153.140646,133.998066,9934.999435
277.356722,38.285162,248.853550,9877.571693
277.359248,76.570323,172.283227,9801.001370
277.361774,76.570323,172.283227,9820.143950
277.364300,114.855485,114.855485,9820.143950
277.366826,-19.142581,229.710970,9724.431046
277.369352,95.712904,172.283227,9858.429112
277.371879,57.427742,114.855485,9839.286531
277.374405,153.140646,114.855485,9801.001370
277.376931,133.998066,153.140646,9858.429112
277.379457,95.712904,114.855485,9801.001370
277.381992,95.712904,172.283227,9820.143950
277.384527,191.425808,153.140646,9877.571693
277.387062,76.570323,210.568389,9858.429112
277.389596,76.570323,172.283227,9839.286531
277.392131,76.570323,172.283227,9762.716208
277.394666,76.570323,114.855485,9820.143950
277.397201,76.570323,114.855485,9858.429112
277.399736,57.427742,114.855485,9858.429112
277.402271,57.427742,153.140646,9934.999435
277.404805,19.142581,191.425808,9839.286531
277.407340,38.285162,172.283227,9915.856854
277.409875,19.142581,153.140646,9839.286531
277.412410,95.712904,172.283227,9801.001370
277.414945,57.427742,172.283227,9915.856854
277.417480,76.570323,153.140646,9820.143950
277.420014,95.712904,229.710970,9762.716208
277.422549,19.142581,153.140646,9801.001370
277.425084,114.855485,153.140646,9801.001370
277.427619,76.570323,114.855485,9858.429112
277.430154,19.142581,172.283227,9801.001370
277.432689,76.570323,210.568389,9820.143950
277.435223,19.142581,191.425808,9839.286531
277.437758,95.712904,114.855485,9896.714274
277.440293,76.570323,172.283227,9877.571693
277.442828,19.142581,210.568389,9762.716208
277.445363,114.855485,114.855485,9801.001370
277.447897,19.142581,133.998066,9896.714274
277.450432,76.570323,153.140646,9858.429112
277.452967,76.570323,172.283227,9858.429112
277.455502,38.285162,191.425808,9915.856854
277.458037,38.285162,76.570323,9820.143950
277.460572,76.570323,229.710970,9858.429112
277.463106,76.570323,210.568389,9820.143950
277.465641,133.998066,172.283227,9839.286531
277.468176,76.570323,153.140646,9877.571693
277.470711,19.142581,153.140646,9896.714274
277.473246,76.570323,172.283227,9877.571693
277.475781,76.570323,153.140646,9839.286531
277.478315,76.570323,114.855485,9858.429112
277.480850,76.570323,172.283227,9839.286531
277.483392,57.427742,248.853550,9877.571693
277.485934,19.142581,153.140646,9839.286531
277.488475,57.427742,191.425808,9877.571693
277.491017,38.285162,133.998066,9820.143950
277.493558,95.712904,229.710970,9858.429112
277.496100,114.855485,114.855485,9858.429112
277.498642,76.570323,229.710970,9762.716208
277.501183,114.855485,210.568389,9762.716208
277.503725,57.427742,95.712904,9896.714274
277.506267,76.570323,114.855485,9858.429112
277.508808,114.855485,172.283227,9839.286531
277.511350,114.855485,229.710970,9858.429112
277.513892,57.427742,229.710970,9801.001370
277.516433,114.855485,229.710970,9801.001370
277.518975,76.570323,229.710970,9762.716208
277.521517,76.570323,172.283227,9839.286531
277.524058,76.570323,133.998066,9915.856854
277.526600,38.285162,76.570323,9839.286531
277.529141,76.570323,229.710970,9877.571693
277.531683,57.427742,172.283227,9915.856854
277.534225,76.570323,229.710970,9839.286531
277.536766,76.570323,153.140646,9839.286531
277.539308,95.712904,76.570323,9915.856854
277.541850,76.570323,210.568389,9839.286531
277.544391,76.570323,210.568389,9839.286531
277.546933,57.427742,172.283227,9839.286531
277.549475,19.142581,191.425808,9858.429112
277.552016,19.142581,191.425808,9896.714274
277.554558,-19.142581,172.283227,9896.714274
277.557099,76.570323,229.710970,9858.429112
277.559641,57.427742,95.712904,9858.429112
277.562183,76.570323,114.855485,9762.716208
277.564724,76.570323,114.855485,9820.143950
277.567266,19.142581,210.568389,9858.429112
277.569808,76.570323,114.855485,9858.429112
277.572349,19.142581,191.425808,9820.143950
277.574891,114.855485,133.998066,9743.573627
277.577433,114.855485,114.855485,9877.571693
277.579974,76.570323,172.283227,9820.143950
277.582516,19.142581,153.140646,9896.714274
277.585064,76.570323,114.855485,9858.429112
277.587611,76.570323,114.855485,9762.716208
277.590158,76.570323,172.283227,9839.286531
277.592705,114.855485,114.855485,9877.571693
277.595251,19.142581,153.140646,9801.001370
277.597798,57.427742,153.140646,9934.999435
277.600345,95.712904,172.283227,9801.001370
277.602892,76.570323,114.855485,9877.571693
277.605439,57.427742,153.140646,9877.571693
277.607986,38.285162,153.140646,9858.429112
277.610533,38.285162,114.855485,9915.856854
277.613080,76.570323,114.855485,9877.571693
277.615627,76.570323,210.568389,9858.429112
277.618174,76.570323,133.998066,9781.858789
277.620721,76.570323,210.568389,9801.001370
277.623267,133.998066,210.568389,9801.001370
277.625814,57.427742,95.712904,9801.001370
277.628361,57.427742,133.998066,9820.143950
277.630908,57.427742,153.140646,9877.571693
277.633455,76.570323,114.855485,9839.286531
277.636002,57.427742,210.568389,9877.571693
277.638549,95.712904,210.568389,9801.001370
277.641096,114.855485,172.283227,9877.571693
277.643643,76.570323,114.855485,9839.286531
277.646190,57.427742,153.140646,9934.999435
277.648737,57.427742,114.855485,9896.714274
277.651284,133.998066,172.283227,9820.143950
277.653830,76.570323,172.283227,9820.143950
277.656377,114.855485,210.568389,9877.571693
277.658924,19.142581,153.140646,9896.714274
277.661471,57.427742,191.425808,9934.999435
277.664018,19.142581,153.140646,9781.858789
277.666565,76.570323,210.568389,9801.001370
277.669112,76.570323,210.568389,9801.001370
277.671659,133.998066,114.855485,9877.571693
277.674206,76.570323,114.855485,9820.143950
277.676753,153.140646,95.712904,9858.429112
277.679300,133.998066,172.283227,9934.999435
277.681846,114.855485,210.568389,9820.143950
277.684393,19.142581,153.140646,9820.143950
277.686912,76.570323,153.140646,9858.429112
277.689431,38.285162,191.425808,9915.856854
277.691950,76.570323,114.855485,9858.429112
277.694469,114.855485,172.283227,9839.286531
277.696988,57.427742,95.712904,9896.714274
277.699507,57.427742,133.998066,9934.999435
277.702026,19.142581,210.568389,9781.858789
277.704545,76.570323,229.710970,9877.571693
277.707064,57.427742,153.140646,9934.999435
277.709583,114.855485,191.425808,9934.999435
277.712102,57.427742,210.568389,9877.571693
277.714621,19.142581,153.140646,9801.001370
277.717140,19.142581,191.425808,9781.858789
277.719659,95.712904,153.140646,9858.429112
277.722178,114.855485,153.140646,9820.143950
277.724697,76.570323,210.568389,9820.143950
277.727216,133.998066,172.283227,9858.429112
277.729735,191.425808,229.710970,9762.716208
277.732254,95.712904,229.710970,9877.571693
277.734773,57.427742,114.855485,9858.429112
277.737292,57.427742,114.855485,9973.284597
277.739811,19.142581,153.140646,9896.714274
277.742330,76.570323,153.140646,9839.286531
277.744849,19.142581,95.712904,9858.429112
277.747368,57.427742,191.425808,9743.573627
277.749887,95.712904,172.283227,9877.571693
277.752406,38.285162,248.853550,9801.001370
277.754925,57.427742,95.712904,9896.714274
277.757444,38.285162,114.855485,9896.714274
277.759963,19.142581,153.140646,9858.429112
277.762482,76.570323,229.710970,9820.143950
277.765001,38.285162,191.425808,9896.714274
277.767520,76.570323,191.425808,9801.001370
277.770039,114.855485,210.568389,9762.716208
277.772558,76.570323,153.140646,9858.429112
277.775077,76.570323,172.283227,9820.143950
277.777596,19.142581,133.998066,9858.429112
277.780114,76.570323,153.140646,9877.571693
277.782633,19.142581,133.998066,9839.286531
277.785152,95.712904,172.283227,9820.143950
277.787682,76.570323,133.998066,9915.856854
277.790211,57.427742,191.425808,9877.571693
277.792740,19.142581,133.998066,9839.286531
277.795270,-0.000000,191.425808,9858.429112
277.797799,76.570323,172.283227,9858.429112
277.800329,76.570323,114.855485,9801.001370
277.802858,57.427742,153.140646,9858.429112
277.805387,133.998066,153.140646,9839.286531
277.807917,95.712904,114.855485,9839.286531
277.810446,76.570323,172.283227,9858.429112
277.812975,95.712904,114.855485,9801.001370
277.815505,57.427742,114.855485,9896.714274
277.818034,76.570323,210.568389,9877.571693
277.820563,133.998066,153.140646,9820.143950
277.823093,57.427742,153.140646,9934.999435
277.825622,76.570323,76.570323,9915.856854
277.828151,114.855485,95.712904,9896.714274
277.830681,19.142581,153.140646,9781.858789
277.833210,76.570323,114.855485,9839.286531
277.835739,76.570323,191.425808,9839.286531
277.838269,114.855485,114.855485,9839.286531
277.840798,95.712904,172.283227,9858.429112
277.843327,95.712904,172.283227,9762.716208
277.845857,19.142581,133.998066,9858.429112
277.848386,95.712904,114.855485,9839.286531
277.850915,57.427742,172.283227,9877.571693
277.853445,114.855485,153.140646,9820.143950
277.855974,76.570323,172.283227,9839.286531
277.858504,19.142581,191.425808,9896.714274
277.861033,19.142581,133.998066,9801.001370
277.863562,38.285162,133.998066,9858.429112
277.866092,114.855485,172.283227,9877.571693
277.868629,19.142581,172.283227,9839.286531
277.871167,38.285162,210.568389,9839.286531
277.873704,19.142581,210.568389,9801.001370
277.876242,76.570323,172.283227,9858.429112
277.878779,95.712904,191.425808,9858.429112
277.881317,95.712904,191.425808,9801.001370
277.883854,133.998066,191.425808,9839.286531
277.886392,76.570323,210.568389,9762.716208
277.888929,19.142581,191.425808,9801.001370
277.891467,19.142581,153.140646,9801.001370
277.894004,95.712904,191.425808,9762.716208
277.896542,76.570323,210.568389,9858.429112
277.899079,19.142581,229.710970,9934.999435
277.901617,76.570323,172.283227,9877.571693
277.904154,95.712904,133.998066,9934.999435
277.906692,19.142581,153.140646,9801.001370
277.909229,57.427742,95.712904,9896.714274
277.911767,114.855485,172.283227,9877.571693
277.914304,76.570323,210.568389,9839.286531
277.916842,76.570323,172.283227,9858.429112
277.919379,114.855485,210.568389,9820.143950
277.921917,133.998066,153.140646,9839.286531
277.924454,19.142581,133.998066,9820.143950
277.926992,133.998066,133.998066,9858.429112
277.929529,76.570323,114.855485,9858.429112
277.932067,57.427742,191.425808,9877.571693
277.934604,38.285162,114.855485,9915.856854
277.937142,38.285162,191.425808,9915.856854
277.939679,76.570323,210.568389,9801.001370
277.942217,76.570323,210.568389,9820.143950
277.944754,76.570323,210.568389,9839.286531
277.947292,114.855485,114.855485,9820.143950
277.949829,19.142581,172.283227,9820.143950
277.952367,114.855485,76.570323,9915.856854
277.954904,76.570323,114.855485,9877.571693
277.957442,19.142581,248.853550,9801.001370
277.959979,19.142581,133.998066,9858.429112
277.962517,114.855485,172.283227,9877.571693
277.965054,133.998066,210.568389,9839.286531
277.967592,19.142581,191.425808,9839.286531
277.970129,133.998066,153.140646,9839.286531
277.972667,76.570323,114.855485,9839.286531
277.975204,114.855485,114.855485,9877.571693
277.977742,95.712904,133.998066,9934.999435
277.980279,19.142581,153.140646,9839.286531
277.982817,76.570323,172.283227,9820.143950
277.985354,114.855485,210.568389,9858.429112
277.987892,76.570323,172.283227,9820.143950
277.990436,76.570323,114.855485,9762.716208
277.992980,57.427742,114.855485,9839.286531
277.995524,76.570323,210.568389,9858.429112
277.998068,57.427742,95.712904,9801.001370
278.000612,57.427742,172.283227,9877.571693
278.003156,38.285162,76.570323,9858.429112
278.005700,76.570323,229.710970,9762.716208
278.008244,133.998066,229.710970,9839.286531
278.010789,57.427742,210.568389,9877.571693
278.013333,114.855485,114.855485,9801.001370
278.015877,19.142581,95.712904,9934.999435
278.018421,76.570323,114.855485,9877.571693
278.020965,19.142581,133.998066,9781.858789
278.023509,133.998066,229.710970,9801.001370
278.026053,76.570323,210.568389,9839.286531
278.028597,19.142581,172.283227,9820.143950
278.031141,76.570323,172.283227,9877.571693
278.033685,57.427742,95.712904,9896.714274
278.036230,19.142581,153.140646,9801.001370
278.038774,76.570323,114.855485,9858.429112
278.041318,114.855485,229.710970,9820.143950
278.043862,19.142581,153.140646,9781.858789
278.046406,114.855485,229.710970,9896.714274
278.048950,57.427742,153.140646,9858.429112
278.051494,38.285162,210.568389,9781.858789
278.054038,57.427742,153.140646,9877.571693
278.056582,-19.142581,76.570323,9858.429112
278.059127,19.142581,172.283227,9820.143950
278.061671,114.855485,210.568389,9762.716208
278.064215,76.570323,229.710970,9801.001370
278.066759,76.570323,210.568389,9877.571693
278.069303,76.570323,172.283227,9858.429112
278.071847,95.712904,95.712904,9896.714274
278.074391,38.285162,133.998066,9858.429112
278.076935,95.712904,114.855485,9858.429112
278.079479,76.570323,114.855485,9877.571693
278.082024,76.570323,114.855485,9858.429112
278.084568,76.570323,172.283227,9762.716208
278.087112,76.570323,133.998066,9839.286531
278.089656,114.855485,229.710970,9762.716208
278.092205,114.855485,191.425808,9839.286531
278.094754,57.427742,191.425808,9934.999435
278.097304,-0.000000,133.998066,9781.858789
278.099853,95.712904,95.712904,9915.856854
278.102402,76.570323,153.140646,9877.571693
278.104951,-19.142581,133.998066,9801.001370
278.107500,-19.142581,172.283227,9839.286531
278.110050,57.427742,153.140646,9934.999435
278.112599,19.142581,172.283227,9820.143950
278.115148,19.142581,153.140646,9858.429112
278.117697,57.427742,229.710970,9858.429112
278.120246,76.570323,114.855485,9801.001370
278.122796,76.570323,153.140646,9820.143950
278.125345,76.570323,172.283227,9820.143950
278.127894,76.570323,133.998066,9896.714274
278.130443,76.570323,172.283227,9877.571693
278.132992,76.570323,229.710970,9858.429112
278.135542,57.427742,210.568389,9858.429112
278.138091,133.998066,248.853550,9896.714274
278.140640,76.570323,191.425808,9801.001370
278.143189,76.570323,114.855485,9839.286531
278.145739,95.712904,114.855485,9858.429112
278.148288,76.570323,210.568389,9839.286531
278.150837,19.142581,133.998066,9858.429112
278.153386,114.855485,210.568389,9877.571693
278.155935,19.142581,133.998066,9839.286531
278.158485,133.998066,172.283227,9877.571693
278.161034,19.142581,191.425808,9820.143950
278.163583,57.427742,229.710970,9781.858789
278.166132,57.427742,95.712904,9839.286531
278.168681,76.570323,172.283227,9762.716208
278.171231,76.570323,153.140646,9858.429112
278.173780,19.142581,153.140646,9858.429112
278.176329,76.570323,191.425808,9858.429112
278.178878,57.427742,153.140646,9934.999435
278.181428,76.570323,114.855485,9820.143950
278.183977,76.570323,153.140646,9858.429112
278.186526,19.142581,191.425808,9858.429112
278.189075,76.570323,210.568389,9839.286531
278.191624,76.570323,133.998066,9839.286531
