#time,accel_x,accel_y,accel_z
402.769097,19.142581,153.140646,9896.714274
402.772048,133.998066,210.568389,9896.714274
402.774999,76.570323,153.140646,9839.286531
402.777950,76.570323,172.283227,9839.286531
402.780900,57.427742,325.423874,9858.429112
402.783851,114.855485,287.138712,9820.143950
402.786802,38.285162,267.996131,9858.429112
402.789753,57.427742,191.425808,9954.142016
402.792704,19.142581,191.425808,9801.001370
402.795654,57.427742,172.283227,9896.714274
402.798605,-0.000000,248.853550,9781.858789
402.801556,57.427742,210.568389,9934.999435
402.804507,76.570323,172.283227,9858.429112
402.807458,38.285162,191.425808,9724.431046
402.810408,95.712904,287.138712,9858.429112
402.813359,76.570323,76.570323,9724.431046
402.816310,76.570323,76.570323,9686.145885
402.819261,133.998066,38.285162,9839.286531
402.822212,229.710970,57.427742,9801.001370
402.825162,76.570323,172.283227,9820.143950
402.828113,57.427742,287.138712,9858.429112
402.831064,57.427742,248.853550,9934.999435
402.834015,38.285162,133.998066,9934.999435
402.836966,76.570323,76.570323,9973.284597
402.839916,133.998066,76.570323,9915.856854
402.842867,57.427742,95.712904,9839.286531
402.845818,-19.142581,114.855485,9915.856854
402.848601,114.855485,191.425808,9954.142016
402.851383,19.142581,153.140646,9781.858789
402.854166,114.855485,210.568389,9839.286531
402.856949,153.140646,114.855485,9801.001370
402.859731,57.427742,95.712904,9801.001370
402.862514,38.285162,76.570323,9762.716208
402.865297,57.427742,210.568389,9743.573627
402.868079,38.285162,172.283227,9724.431046
402.870862,76.570323,210.568389,9781.858789
402.873644,133.998066,172.283227,9820.143950
402.876427,19.142581,133.998066,9896.714274
402.879210,95.712904,114.855485,9877.571693
402.881992,38.285162,114.855485,9915.856854
402.884775,57.427742,133.998066,9954.142016
402.887558,95.712904,191.425808,9934.999435
402.890340,133.998066,172.283227,9877.571693
402.893123,57.427742,114.855485,9896.714274
402.895905,114.855485,172.283227,9858.429112
402.898688,57.427742,248.853550,9858.429112
402.901471,114.855485,191.425808,9934.999435
402.904253,57.427742,114.855485,9896.714274
402.907036,19.142581,133.998066,9858.429112
402.909819,76.570323,210.568389,9839.286531
402.912601,76.570323,172.283227,9762.716208
402.915384,191.425808,153.140646,9801.001370
402.918166,19.142581,153.140646,9839.286531
402.920949,38.285162,76.570323,9801.001370
402.923732,76.570323,114.855485,9762.716208
402.926514,76.570323,191.425808,9877.571693
402.929297,38.285162,114.855485,9915.856854
402.932080,95.712904,229.710970,9820.143950
402.934862,114.855485,153.140646,9820.143950
402.937645,153.140646,114.855485,9820.143950
402.940428,76.570323,133.998066,9915.856854
402.943210,114.855485,114.855485,9858.429112
402.945993,76.570323,210.568389,9820.143950
402.948775,38.285162,172.283227,9858.429112
402.951558,57.427742,210.568389,9896.714274
402.954341,114.855485,210.568389,9877.571693
402.957123,114.855485,153.140646,9934.999435
402.959806,76.570323,229.710970,9801.001370
402.962489,57.427742,287.138712,9896.714274
402.965172,114.855485,210.568389,9877.571693
402.967855,76.570323,153.140646,9877.571693
402.970538,19.142581,153.140646,9781.858789
402.973221,114.855485,210.568389,9801.001370
402.975904,76.570323,229.710970,9858.429112
402.978586,19.142581,172.283227,9781.858789
402.981269,114.855485,172.283227,9820.143950
402.983952,76.570323,114.855485,9801.001370
402.986635,38.285162,38.285162,9743.573627
402.989318,57.427742,95.712904,9896.714274
402.992001,19.142581,133.998066,9801.001370
402.994684,19.142581,133.998066,9781.858789
402.997367,114.855485,210.568389,9934.999435
403.000050,76.570323,210.568389,9762.716208
403.002732,76.570323,210.568389,9762.716208
403.005415,57.427742,210.568389,9934.999435
403.008098,191.425808,191.425808,9839.286531
403.010781,19.142581,133.998066,9858.429112
403.013464,57.427742,153.140646,10011.569758
403.016147,38.285162,172.283227,10011.569758
403.018830,-0.000000,210.568389,9781.858789
403.021513,76.570323,267.996131,9915.856854
403.024196,248.853550,287.138712,9973.284597
403.026878,-57.427742,229.710970,9667.003304
403.029561,172.283227,248.853550,9934.999435
403.032244,76.570323,-38.285162,9686.145885
403.034927,-19.142581,114.855485,9801.001370
403.037610,76.570323,191.425808,9915.856854
403.040293,19.142581,95.712904,9743.573627
403.042976,172.283227,382.851616,9762.716208
403.045659,19.142581,133.998066,9781.858789
403.048341,191.425808,248.853550,9801.001370
403.051024,-76.570323,76.570323,9762.716208
403.053707,248.853550,229.710970,9915.856854
403.056390,-19.142581,191.425808,9781.858789
403.059073,57.427742,191.425808,9992.427178
403.061756,95.712904,210.568389,9877.571693
403.064439,76.570323,229.710970,9877.571693
403.067059,133.998066,248.853550,9896.714274
403.069678,133.998066,172.283227,9877.571693
403.072298,306.281293,344.566454,9934.999435
403.074918,-57.427742,172.283227,9705.288466
403.077537,172.283227,191.425808,9954.142016
403.080157,-0.000000,153.140646,9839.286531
403.082777,-0.000000,76.570323,9839.286531
403.085397,114.855485,229.710970,9820.143950
403.088016,19.142581,191.425808,9801.001370
403.090636,133.998066,248.853550,9820.143950
403.093256,57.427742,153.140646,9743.573627
403.095875,248.853550,153.140646,9781.858789
403.098495,19.142581,95.712904,9628.718142
403.101115,325.423874,153.140646,9896.714274
403.103735,-38.285162,38.285162,9858.429112
403.106354,76.570323,172.283227,9877.571693
403.108974,19.142581,114.855485,9877.571693
403.111594,19.142581,133.998066,9801.001370
403.114214,172.283227,153.140646,9839.286531
403.116833,57.427742,57.427742,9839.286531
403.119453,248.853550,267.996131,9992.427178
403.122073,76.570323,114.855485,9801.001370
403.124692,114.855485,210.568389,9954.142016
403.127312,-19.142581,172.283227,9915.856854
403.129932,38.285162,114.855485,9973.284597
403.132552,114.855485,114.855485,9877.571693
403.135171,76.570323,133.998066,9724.431046
403.137791,248.853550,191.425808,9858.429112
403.140411,76.570323,114.855485,9762.716208
403.143030,191.425808,191.425808,9801.001370
403.145650,38.285162,38.285162,9762.716208
403.148270,248.853550,76.570323,9877.571693
403.150890,38.285162,19.142581,9820.143950
403.153509,-95.712904,172.283227,9820.143950
403.156129,38.285162,133.998066,9743.573627
403.158749,76.570323,133.998066,9743.573627
403.161369,191.425808,114.855485,9858.429112
403.163988,57.427742,95.712904,9801.001370
403.166608,172.283227,229.710970,9973.284597
403.169228,19.142581,153.140646,9858.429112
403.171805,210.568389,191.425808,10030.712339
403.174381,-0.000000,133.998066,9801.001370
403.176958,-57.427742,153.140646,9896.714274
403.179535,153.140646,172.283227,9973.284597
403.182112,-38.285162,133.998066,9801.001370
403.184689,306.281293,191.425808,9820.143950
403.187266,133.998066,210.568389,9801.001370
403.189842,267.996131,248.853550,9877.571693
403.192419,114.855485,76.570323,9781.858789
403.194996,306.281293,210.568389,10011.569758
403.197573,-95.712904,153.140646,9839.286531
403.200150,76.570323,229.710970,9877.571693
403.202727,38.285162,248.853550,9839.286531
403.205303,38.285162,153.140646,9762.716208
403.207880,229.710970,191.425808,9705.288466
403.210457,38.285162,133.998066,9801.001370
403.213034,267.996131,210.568389,9896.714274
403.215611,-19.142581,153.140646,9781.858789
403.218187,19.142581,306.281293,9973.284597
403.220764,-0.000000,153.140646,9839.286531
403.223341,-57.427742,153.140646,9858.429112
403.225918,133.998066,248.853550,9858.429112
403.228495,76.570323,172.283227,9762.716208
403.231072,267.996131,344.566454,9762.716208
403.233648,19.142581,248.853550,9801.001370
403.236225,267.996131,153.140646,9820.143950
403.238802,114.855485,114.855485,9801.001370
403.241379,133.998066,191.425808,9954.142016
403.243956,-76.570323,248.853550,9877.571693
403.246533,-76.570323,287.138712,10011.569758
403.249109,38.285162,267.996131,9858.429112
403.251686,-38.285162,172.283227,9781.858789
403.254263,191.425808,153.140646,9801.001370
403.256840,114.855485,95.712904,9724.431046
403.259417,248.853550,248.853550,9839.286531
403.261994,-57.427742,210.568389,9724.431046
403.264570,57.427742,172.283227,9934.999435
403.267147,-95.712904,248.853550,9858.429112
403.269724,-0.000000,133.998066,9877.571693
403.272301,114.855485,210.568389,9820.143950
403.274851,95.712904,172.283227,9762.716208
403.277402,267.996131,153.140646,9781.858789
403.279952,172.283227,133.998066,9762.716208
403.282502,267.996131,114.855485,9934.999435
403.285053,-57.427742,133.998066,9762.716208
403.287603,76.570323,229.710970,9992.427178
403.290154,76.570323,229.710970,9858.429112
403.292704,-19.142581,229.710970,9973.284597
403.295254,76.570323,76.570323,9896.714274
403.297805,76.570323,114.855485,9762.716208
403.300355,306.281293,133.998066,9801.001370
403.302906,38.285162,38.285162,9858.429112
403.305456,172.283227,153.140646,9934.999435
403.308006,38.285162,76.570323,9801.001370
403.310557,-0.000000,172.283227,9915.856854
403.313107,-57.427742,153.140646,9896.714274
403.315658,-0.000000,153.140646,9820.143950
403.318208,172.283227,210.568389,9801.001370
403.320758,38.285162,114.855485,9724.431046
403.323309,229.710970,95.712904,9839.286531
403.325859,57.427742,95.712904,9781.858789
403.328410,267.996131,172.283227,9801.001370
403.330960,-19.142581,38.285162,9839.286531
403.333510,76.570323,172.283227,9992.427178
403.336061,-0.000000,229.710970,9934.999435
403.338611,19.142581,95.712904,9992.427178
403.341162,76.570323,114.855485,9934.999435
403.343712,19.142581,114.855485,9743.573627
403.346262,210.568389,248.853550,9781.858789
403.348813,114.855485,95.712904,9724.431046
403.351363,287.138712,95.712904,9973.284597
403.353914,19.142581,133.998066,9801.001370
403.356464,-57.427742,153.140646,9954.142016
403.359014,-76.570323,191.425808,9858.429112
403.361565,-0.000000,191.425808,9896.714274
403.364115,210.568389,114.855485,9724.431046
403.366666,114.855485,114.855485,9762.716208
403.369216,210.568389,172.283227,9839.286531
403.371766,191.425808,76.570323,9781.858789
403.374317,210.568389,191.425808,9877.571693
403.376849,19.142581,95.712904,9667.003304
403.379380,57.427742,95.712904,9896.714274
403.381912,19.142581,153.140646,9896.714274
403.384443,-57.427742,133.998066,9896.714274
403.386974,57.427742,191.425808,9934.999435
403.389505,114.855485,153.140646,9705.288466
403.392036,287.138712,191.425808,9896.714274
403.394567,76.570323,114.855485,9858.429112
403.397099,229.710970,248.853550,9934.999435
403.399630,19.142581,133.998066,9839.286531
403.402161,38.285162,287.138712,9992.427178
403.404692,95.712904,287.138712,9839.286531
403.407223,19.142581,191.425808,9858.429112
403.409754,133.998066,133.998066,9801.001370
403.412286,133.998066,114.855485,9820.143950
403.414817,248.853550,210.568389,9915.856854
403.417348,19.142581,248.853550,9781.858789
403.419879,267.996131,248.853550,9801.001370
403.422410,38.285162,114.855485,9724.431046
403.424941,172.283227,133.998066,9934.999435
403.427473,-38.285162,133.998066,9896.714274
403.430004,-19.142581,153.140646,9915.856854
403.432535,38.285162,287.138712,9801.001370
403.435066,57.427742,229.710970,9781.858789
403.437597,287.138712,267.996131,9743.573627
403.440128,153.140646,114.855485,9820.143950
403.442660,153.140646,210.568389,10049.854920
403.445191,-172.283227,210.568389,9820.143950
403.447722,57.427742,248.853550,9992.427178
403.450253,76.570323,267.996131,9915.856854
403.452784,76.570323,229.710970,9839.286531
403.455315,95.712904,229.710970,9762.716208
403.457847,57.427742,172.283227,9781.858789
403.460378,229.710970,191.425808,9973.284597
403.462909,133.998066,153.140646,9743.573627
403.465440,306.281293,95.712904,9877.571693
403.467971,19.142581,57.427742,9820.143950
403.470502,57.427742,191.425808,9934.999435
403.473033,-95.712904,133.998066,9896.714274
403.475565,76.570323,191.425808,9934.999435
403.478081,95.712904,287.138712,9820.143950
403.480598,133.998066,114.855485,9628.718142
403.483114,325.423874,229.710970,9743.573627
403.485631,38.285162,76.570323,9858.429112
403.488147,95.712904,76.570323,9954.142016
403.490664,-95.712904,114.855485,9801.001370
403.493180,38.285162,191.425808,9915.856854
403.495697,19.142581,210.568389,9762.716208
403.498213,95.712904,153.140646,9820.143950
403.500730,172.283227,76.570323,9877.571693
403.503246,57.427742,114.855485,9915.856854
403.505763,133.998066,191.425808,9934.999435
403.508279,57.427742,133.998066,9781.858789
403.510796,248.853550,114.855485,9839.286531
403.513312,38.285162,19.142581,9801.001370
403.515829,-0.000000,114.855485,10030.712339
403.518345,-38.285162,172.283227,9858.429112
403.520862,19.142581,287.138712,9954.142016
403.523378,95.712904,287.138712,9781.858789
403.525895,76.570323,76.570323,9724.431046
403.528411,248.853550,38.285162,9934.999435
403.530928,-0.000000,-38.285162,9762.716208
403.533444,57.427742,114.855485,9915.856854
403.535961,-38.285162,210.568389,9820.143950
403.538477,-0.000000,287.138712,9954.142016
403.540994,38.285162,248.853550,9705.288466
403.543510,76.570323,172.283227,9839.286531
403.546027,210.568389,133.998066,9858.429112
403.548543,76.570323,133.998066,9724.431046
403.551060,267.996131,114.855485,9934.999435
403.553576,114.855485,114.855485,9781.858789
403.556093,114.855485,133.998066,9858.429112
403.558609,38.285162,172.283227,9896.714274
403.561126,153.140646,172.283227,10126.425243
403.563642,-57.427742,248.853550,9896.714274
403.566159,-19.142581,210.568389,9973.284597
403.568675,76.570323,229.710970,9762.716208
403.571192,57.427742,153.140646,9743.573627
403.573708,325.423874,153.140646,9839.286531
403.576225,95.712904,114.855485,9762.716208
403.578729,153.140646,76.570323,9896.714274
403.581233,-133.998066,229.710970,9839.286531
403.583738,-76.570323,229.710970,10030.712339
403.586242,-133.998066,229.710970,9801.001370
403.588746,57.427742,191.425808,9743.573627
403.591250,248.853550,191.425808,9781.858789
403.593754,133.998066,95.712904,9628.718142
403.596259,287.138712,153.140646,9839.286531
403.598763,76.570323,172.283227,9762.716208
403.601267,133.998066,248.853550,9992.427178
403.603771,19.142581,191.425808,9820.143950
403.606276,76.570323,325.423874,9954.142016
403.608780,19.142581,210.568389,9762.716208
403.611284,-0.000000,153.140646,9973.284597
403.613788,57.427742,287.138712,9801.001370
403.616293,153.140646,210.568389,9686.145885
403.618797,287.138712,229.710970,9896.714274
403.621301,76.570323,210.568389,9801.001370
403.623805,172.283227,210.568389,9992.427178
403.626309,-76.570323,95.712904,9896.714274
403.628814,-76.570323,172.283227,9973.284597
403.631318,38.285162,229.710970,9877.571693
403.633822,133.998066,267.996131,9781.858789
403.636326,248.853550,210.568389,9724.431046
403.638831,57.427742,153.140646,9686.145885
403.641335,248.853550,172.283227,9954.142016
403.643839,38.285162,76.570323,9762.716208
403.646343,229.710970,248.853550,9954.142016
403.648848,19.142581,191.425808,9820.143950
403.651352,38.285162,114.855485,9915.856854
403.653856,-57.427742,153.140646,9801.001370
403.656360,95.712904,76.570323,9877.571693
403.658865,114.855485,172.283227,9820.143950
403.661369,57.427742,248.853550,9743.573627
403.663873,344.566454,344.566454,9839.286531
403.666377,-0.000000,76.570323,9743.573627
403.668881,172.283227,172.283227,10145.567824
403.671386,-133.998066,76.570323,9954.142016
403.673890,-19.142581,133.998066,9973.284597
403.676394,38.285162,287.138712,9896.714274
403.678890,95.712904,287.138712,9781.858789
403.681387,325.423874,210.568389,9858.429112
403.683883,153.140646,153.140646,9705.288466
403.686379,210.568389,76.570323,9896.714274
403.688876,19.142581,38.285162,9686.145885
403.691372,133.998066,191.425808,9934.999435
403.693868,-95.712904,114.855485,9762.716208
403.696365,38.285162,210.568389,10011.569758
403.698861,-172.283227,210.568389,9839.286531
403.701357,76.570323,172.283227,9896.714274
403.703854,248.853550,172.283227,9820.143950
403.706350,133.998066,76.570323,9686.145885
403.708846,306.281293,76.570323,9858.429112
403.711343,-57.427742,95.712904,9801.001370
403.713839,19.142581,191.425808,10088.140082
403.716335,-38.285162,114.855485,9915.856854
403.718832,38.285162,210.568389,10011.569758
403.721328,57.427742,191.425808,9743.573627
403.723824,95.712904,133.998066,9743.573627
403.726321,248.853550,133.998066,9896.714274
403.728817,76.570323,133.998066,9781.858789
403.731313,229.710970,172.283227,9973.284597
403.733809,-0.000000,133.998066,9724.431046
403.736306,267.996131,172.283227,9915.856854
403.738802,-95.712904,153.140646,9820.143950
403.741298,19.142581,95.712904,10049.854920
403.743795,-57.427742,210.568389,9801.001370
403.746291,-19.142581,267.996131,9839.286531
403.748787,172.283227,114.855485,9705.288466
403.751284,153.140646,153.140646,9628.718142
403.753780,248.853550,172.283227,9896.714274
403.756276,95.712904,-19.142581,9877.571693
403.758773,19.142581,210.568389,10030.712339
403.761269,-210.568389,153.140646,9858.429112
403.763765,-0.000000,210.568389,9896.714274
403.766262,38.285162,153.140646,9820.143950
403.768758,191.425808,153.140646,9801.001370
403.771254,363.709035,229.710970,9820.143950
403.773751,19.142581,133.998066,9781.858789
403.776247,248.853550,229.710970,9915.856854
403.778738,19.142581,191.425808,9820.143950
403.781230,133.998066,153.140646,9992.427178
403.783722,-133.998066,95.712904,9801.001370
403.786213,38.285162,114.855485,10030.712339
403.788705,-0.000000,248.853550,9896.714274
403.791197,95.712904,248.853550,9820.143950
403.793688,172.283227,267.996131,9762.716208
403.796180,153.140646,153.140646,9705.288466
403.798672,306.281293,191.425808,9801.001370
403.801163,-0.000000,172.283227,9724.431046
403.803655,38.285162,76.570323,10049.854920
403.806147,-172.283227,172.283227,9839.286531
403.808638,-38.285162,153.140646,9992.427178
403.811130,19.142581,172.283227,9877.571693
403.813621,19.142581,191.425808,9781.858789
403.816113,191.425808,248.853550,9781.858789
403.818605,153.140646,210.568389,9686.145885
403.821096,344.566454,210.568389,9954.142016
403.823588,38.285162,76.570323,9743.573627
403.826080,191.425808,153.140646,10068.997501
403.828571,-95.712904,287.138712,9858.429112
403.831063,38.285162,229.710970,10030.712339
403.833555,-0.000000,172.283227,9801.001370
403.836046,19.142581,229.710970,9820.143950
403.838538,191.425808,210.568389,9839.286531
403.841029,95.712904,133.998066,9667.003304
403.843521,287.138712,172.283227,9915.856854
403.846013,-76.570323,153.140646,9934.999435
403.848504,-57.427742,287.138712,9992.427178
403.850996,-57.427742,153.140646,9858.429112
403.853488,76.570323,191.425808,9877.571693
403.855979,172.283227,76.570323,9762.716208
403.858471,19.142581,153.140646,9781.858789
403.860963,191.425808,153.140646,9781.858789
403.863454,-0.000000,133.998066,9858.429112
403.865946,248.853550,172.283227,9954.142016
403.868438,19.142581,191.425808,9801.001370
403.870929,191.425808,172.283227,10068.997501
403.873421,-114.855485,191.425808,9724.431046
403.875912,38.285162,153.140646,9934.999435
403.878401,-38.285162,267.996131,9820.143950
403.880889,114.855485,172.283227,9839.286531
403.883378,248.853550,248.853550,9724.431046
403.885866,95.712904,114.855485,9686.145885
403.888355,267.996131,57.427742,9877.571693
403.890843,-114.855485,114.855485,9820.143950
403.893332,-19.142581,153.140646,10145.567824
403.895820,-114.855485,229.710970,9820.143950
403.898308,-19.142581,133.998066,9839.286531
403.900797,172.283227,191.425808,9762.716208
403.903285,210.568389,76.570323,9609.575562
403.905774,267.996131,153.140646,9781.858789
403.908262,38.285162,76.570323,9762.716208
403.910751,114.855485,153.140646,10049.854920
403.913239,-287.138712,248.853550,9801.001370
403.915728,153.140646,133.998066,10011.569758
403.918216,-38.285162,76.570323,9762.716208
403.920704,57.427742,133.998066,9954.142016
403.923193,57.427742,210.568389,9762.716208
403.925681,172.283227,133.998066,9820.143950
403.928170,229.710970,248.853550,9801.001370
403.930658,19.142581,153.140646,9781.858789
403.933147,248.853550,95.712904,9973.284597
403.935635,-57.427742,76.570323,9858.429112
403.938123,76.570323,76.570323,10011.569758
403.940612,-57.427742,133.998066,9801.001370
403.943100,57.427742,95.712904,9858.429112
403.945589,191.425808,248.853550,9801.001370
403.948077,95.712904,210.568389,9743.573627
403.950566,306.281293,153.140646,9820.143950
403.953054,19.142581,172.283227,9839.286531
403.955543,76.570323,153.140646,10088.140082
403.958031,38.285162,114.855485,9724.431046
403.960519,133.998066,248.853550,10049.854920
403.963008,-172.283227,229.710970,9839.286531
403.965496,19.142581,191.425808,9896.714274
403.967985,-19.142581,210.568389,9705.288466
403.970473,114.855485,172.283227,9839.286531
403.972962,248.853550,210.568389,9915.856854
403.975450,57.427742,95.712904,9801.001370
403.977937,172.283227,172.283227,9934.999435
403.980423,-95.712904,153.140646,9839.286531
403.982910,38.285162,210.568389,9915.856854
403.985397,76.570323,210.568389,9743.573627
403.987883,114.855485,172.283227,9934.999435
403.990370,153.140646,248.853550,9858.429112
403.992856,153.140646,153.140646,9686.145885
403.995343,248.853550,153.140646,9934.999435
403.997830,-19.142581,172.283227,9781.858789
404.000316,19.142581,114.855485,9954.142016
404.002803,-172.283227,191.425808,9877.571693
404.005290,38.285162,191.425808,10088.140082
404.007776,-153.140646,325.423874,9781.858789
404.010263,19.142581,210.568389,9954.142016
404.012749,133.998066,306.281293,9686.145885
404.015236,172.283227,210.568389,9686.145885
404.017723,382.851616,172.283227,9801.001370
404.020209,95.712904,76.570323,9781.858789
404.022696,38.285162,133.998066,10049.854920
404.025183,-153.140646,287.138712,9896.714274
404.027669,-19.142581,191.425808,10011.569758
404.030156,-95.712904,306.281293,9820.143950
404.032642,133.998066,153.140646,9858.429112
404.035129,210.568389,191.425808,9724.431046
404.037616,57.427742,76.570323,9762.716208
404.040102,172.283227,191.425808,9973.284597
404.042589,-38.285162,114.855485,9877.571693
404.045075,114.855485,133.998066,10049.854920
404.047562,-38.285162,114.855485,9896.714274
404.050049,57.427742,191.425808,9992.427178
404.052535,-76.570323,287.138712,9762.716208
404.055022,114.855485,114.855485,9877.571693
404.057509,133.998066,248.853550,9781.858789
404.059995,191.425808,133.998066,9801.001370
404.062482,229.710970,172.283227,9915.856854
404.064968,-19.142581,153.140646,9781.858789
404.067455,153.140646,153.140646,9992.427178
404.069942,-95.712904,287.138712,9934.999435
404.072428,38.285162,229.710970,9992.427178
404.074915,57.427742,306.281293,9858.429112
404.077401,38.285162,114.855485,9781.858789
404.079887,172.283227,172.283227,9915.856854
404.082373,114.855485,153.140646,9667.003304
404.084860,210.568389,153.140646,9839.286531
404.087346,133.998066,325.423874,10030.712339
404.089832,-38.285162,267.996131,9896.714274
404.092318,-95.712904,153.140646,9839.286531
404.094804,19.142581,248.853550,9973.284597
404.097290,76.570323,133.998066,9667.003304
404.099776,57.427742,210.568389,9934.999435
404.102262,76.570323,172.283227,9762.716208
404.104749,57.427742,248.853550,9628.718142
404.107235,57.427742,287.138712,9801.001370
404.109721,95.712904,133.998066,9934.999435
404.112207,38.285162,76.570323,9801.001370
404.114693,38.285162,-38.285162,9801.001370
404.117179,19.142581,57.427742,9934.999435
404.119665,-0.000000,153.140646,9839.286531
404.122152,153.140646,287.138712,9762.716208
404.124638,153.140646,133.998066,9934.999435
404.127124,229.710970,172.283227,9724.431046
404.129610,76.570323,114.855485,9820.143950
404.132096,172.283227,-76.570323,9915.856854
404.134582,57.427742,57.427742,9590.432981
404.137068,172.283227,57.427742,9858.429112
404.139555,76.570323,172.283227,9762.716208
404.142041,57.427742,-19.142581,9877.571693
404.144527,95.712904,153.140646,9973.284597
404.147013,-133.998066,114.855485,9858.429112
404.149499,38.285162,153.140646,9954.142016
404.151985,-38.285162,114.855485,9686.145885
404.154471,210.568389,133.998066,10049.854920
404.156958,76.570323,38.285162,9647.860723
404.159444,133.998066,0.000000,9896.714274
404.161930,57.427742,133.998066,9877.571693
404.164416,38.285162,76.570323,9858.429112
404.166902,114.855485,191.425808,9934.999435
404.169388,-76.570323,267.996131,9858.429112
404.171874,19.142581,191.425808,9954.142016
404.174361,57.427742,191.425808,9628.718142
404.176847,325.423874,210.568389,9858.429112
404.179333,191.425808,133.998066,9590.432981
404.181819,248.853550,95.712904,9896.714274
404.184306,57.427742,191.425808,9858.429112
404.186792,-0.000000,210.568389,9896.714274
404.189278,38.285162,325.423874,10068.997501
404.191764,-76.570323,153.140646,9992.427178
404.194251,153.140646,267.996131,9877.571693
404.196737,-0.000000,95.712904,9743.573627
404.199223,344.566454,248.853550,10049.854920
404.201709,57.427742,191.425808,9686.145885
404.204196,172.283227,287.138712,9839.286531
404.206682,76.570323,325.423874,9896.714274
404.209168,19.142581,172.283227,9973.284597
404.211654,38.285162,267.996131,9992.427178
404.214141,-57.427742,191.425808,9858.429112
404.216627,95.712904,287.138712,9781.858789
404.219113,76.570323,229.710970,9571.290400
404.221599,325.423874,267.996131,9896.714274
404.224086,114.855485,172.283227,9686.145885
404.226572,191.425808,191.425808,9877.571693
404.229058,19.142581,153.140646,9839.286531
404.231544,38.285162,229.710970,9915.856854
404.234031,-19.142581,267.996131,9934.999435
404.236517,19.142581,210.568389,9801.001370
404.239003,95.712904,287.138712,9896.714274
404.241489,-38.285162,191.425808,9743.573627
404.243976,287.138712,363.709035,9820.143950
404.246462,114.855485,325.423874,9705.288466
404.248948,114.855485,210.568389,9896.714274
404.251434,19.142581,191.425808,9839.286531
404.253921,-57.427742,114.855485,9973.284597
404.256407,-0.000000,229.710970,9992.427178
404.258893,-76.570323,306.281293,9820.143950
404.261379,95.712904,306.281293,9858.429112
404.263866,76.570323,229.710970,9571.290400
404.266352,191.425808,210.568389,9801.001370
404.268838,229.710970,76.570323,9762.716208
404.271324,172.283227,57.427742,9820.143950
404.273811,153.140646,153.140646,9877.571693
404.276293,95.712904,172.283227,9896.714274
404.278781,38.285162,229.710970,9915.856854
404.281269,-19.142581,133.998066,9896.714274
404.283757,-19.142581,133.998066,9992.427178
404.286245,-76.570323,172.283227,9724.431046
404.288733,114.855485,210.568389,9839.286531
404.291221,95.712904,248.853550,9628.718142
404.293708,153.140646,76.570323,9896.714274
404.296196,57.427742,95.712904,9801.001370
404.298684,19.142581,95.712904,10049.854920
404.301172,-0.000000,133.998066,10030.712339
404.303660,-95.712904,191.425808,9781.858789
404.306148,153.140646,210.568389,9915.856854
404.308636,76.570323,76.570323,9686.145885
404.311124,344.566454,38.285162,9839.286531
404.313612,76.570323,76.570323,9705.288466
404.316100,229.710970,76.570323,9839.286531
404.318588,38.285162,38.285162,9762.716208
404.321076,38.285162,95.712904,9877.571693
404.323564,114.855485,172.283227,9954.142016
404.326052,-76.570323,133.998066,9820.143950
404.328540,19.142581,114.855485,9820.143950
404.331028,76.570323,133.998066,9820.143950
404.333516,248.853550,76.570323,9877.571693
404.336004,114.855485,95.712904,9590.432981
404.338492,248.853550,76.570323,9877.571693
404.340979,38.285162,114.855485,9896.714274
404.343467,-76.570323,133.998066,9954.142016
404.345955,-57.427742,210.568389,10030.712339
404.348443,-172.283227,114.855485,9839.286531
404.350931,153.140646,210.568389,9915.856854
404.353419,-19.142581,133.998066,9628.718142
404.355907,344.566454,76.570323,9762.716208
404.358395,133.998066,76.570323,9647.860723
404.360883,229.710970,172.283227,9896.714274
404.363371,19.142581,172.283227,9801.001370
404.365859,38.285162,210.568389,9992.427178
404.368347,-76.570323,287.138712,9915.856854
404.370835,-76.570323,114.855485,9762.716208
404.373323,114.855485,114.855485,9877.571693
404.375812,-0.000000,76.570323,9686.145885
404.378302,229.710970,172.283227,9915.856854
404.380791,210.568389,287.138712,9743.573627
404.383281,153.140646,287.138712,9839.286531
404.385770,114.855485,210.568389,9896.714274
404.388260,-19.142581,133.998066,9896.714274
404.390749,57.427742,191.425808,9992.427178
404.393239,-133.998066,133.998066,9820.143950
404.395728,95.712904,306.281293,9915.856854
404.398218,76.570323,267.996131,9609.575562
404.400707,267.996131,229.710970,9801.001370
404.403197,210.568389,287.138712,9858.429112
404.405686,287.138712,153.140646,9781.858789
404.408176,76.570323,210.568389,9762.716208
404.410665,19.142581,229.710970,9915.856854
404.413154,38.285162,325.423874,10126.425243
404.415644,-95.712904,191.425808,9858.429112
404.418133,95.712904,248.853550,10011.569758
404.420623,19.142581,191.425808,9609.575562
404.423112,229.710970,267.996131,9820.143950
404.425602,191.425808,306.281293,9628.718142
404.428091,114.855485,191.425808,9934.999435
404.430581,19.142581,287.138712,9934.999435
404.433070,-153.140646,191.425808,9877.571693
404.435560,95.712904,267.996131,9954.142016
404.438049,-95.712904,229.710970,9705.288466
404.440539,153.140646,229.710970,9781.858789
404.443028,38.285162,267.996131,9743.573627
404.445518,95.712904,267.996131,9915.856854
404.448007,57.427742,306.281293,9705.288466
404.450497,267.996131,248.853550,9858.429112
404.452986,95.712904,114.855485,9781.858789
404.455476,57.427742,76.570323,9934.999435
404.457965,19.142581,172.283227,10088.140082
404.460455,-172.283227,153.140646,9877.571693
404.462944,19.142581,287.138712,9934.999435
404.465434,57.427742,267.996131,9705.288466
404.467923,248.853550,210.568389,9781.858789
404.470413,191.425808,114.855485,9667.003304
404.472902,133.998066,38.285162,10011.569758
404.475393,-0.000000,172.283227,9954.142016
404.477885,-114.855485,287.138712,9877.571693
404.480376,76.570323,267.996131,9915.856854
404.482868,-19.142581,114.855485,9705.288466
404.485359,95.712904,133.998066,9934.999435
404.487850,-19.142581,76.570323,9762.716208
404.490342,229.710970,210.568389,9934.999435
404.492833,114.855485,172.283227,9705.288466
404.495324,267.996131,229.710970,9896.714274
404.497816,133.998066,-38.285162,9934.999435
404.500307,-19.142581,-19.142581,9934.999435
404.502798,19.142581,95.712904,9992.427178
404.505290,-0.000000,153.140646,9801.001370
404.507781,133.998066,191.425808,9858.429112
404.510273,114.855485,153.140646,9762.716208
404.512764,267.996131,76.570323,9877.571693
404.515255,95.712904,95.712904,9724.431046
404.517747,153.140646,133.998066,9934.999435
404.520238,57.427742,95.712904,9839.286531
404.522729,76.570323,76.570323,9915.856854
404.525221,-38.285162,114.855485,10030.712339
404.527712,38.285162,95.712904,9858.429112
404.530203,133.998066,153.140646,9839.286531
404.532695,57.427742,153.140646,9628.718142
404.535186,229.710970,76.570323,9839.286531
404.537678,57.427742,133.998066,9628.718142
404.540169,133.998066,57.427742,9915.856854
404.542660,-38.285162,0.000000,9973.284597
404.545152,-0.000000,153.140646,9973.284597
404.547643,19.142581,191.425808,10088.140082
404.550134,19.142581,248.853550,9724.431046
404.552626,153.140646,248.853550,9743.573627
404.555117,76.570323,133.998066,9724.431046
404.557608,210.568389,95.712904,9973.284597
404.560100,-19.142581,153.140646,9781.858789
404.562591,57.427742,153.140646,9915.856854
404.565082,38.285162,229.710970,9915.856854
404.567574,-19.142581,133.998066,9801.001370
404.570065,133.998066,114.855485,10030.712339
404.572557,19.142581,133.998066,9801.001370
404.575049,76.570323,172.283227,9781.858789
404.577542,19.142581,306.281293,9743.573627
404.580035,172.283227,248.853550,9858.429112
404.582528,114.855485,153.140646,9667.003304
404.585020,267.996131,95.712904,9915.856854
404.587513,57.427742,133.998066,9973.284597
404.590006,19.142581,287.138712,10011.569758
404.592499,19.142581,306.281293,9973.284597
404.594991,38.285162,325.423874,9820.143950
404.597484,172.283227,287.138712,9915.856854
404.599977,57.427742,133.998066,9762.716208
404.602470,229.710970,133.998066,9839.286531
404.604963,19.142581,229.710970,9667.003304
404.607455,191.425808,210.568389,9762.716208
404.609948,76.570323,248.853550,9896.714274
404.612441,76.570323,191.425808,9896.714274
404.614934,-19.142581,229.710970,9973.284597
404.617426,19.142581,248.853550,9858.429112
404.619919,191.425808,287.138712,9915.856854
404.622412,38.285162,210.568389,9609.575562
404.624905,210.568389,153.140646,9839.286531
404.627397,38.285162,153.140646,9896.714274
404.629890,57.427742,95.712904,9896.714274
404.632383,76.570323,287.138712,9858.429112
404.634876,76.570323,287.138712,10011.569758
404.637369,-57.427742,267.996131,9820.143950
404.639861,95.712904,153.140646,9877.571693
404.642354,38.285162,114.855485,9896.714274
404.644847,76.570323,172.283227,9647.860723
404.647340,95.712904,153.140646,9934.999435
404.649832,153.140646,248.853550,9628.718142
404.652325,57.427742,172.283227,9934.999435
404.654818,-19.142581,172.283227,9839.286531
404.657311,76.570323,114.855485,9954.142016
404.659803,38.285162,153.140646,10068.997501
404.662296,19.142581,248.853550,9801.001370
404.664789,210.568389,325.423874,9877.571693
404.667282,-38.285162,57.427742,9628.718142
404.669774,229.710970,76.570323,9877.571693
404.672267,57.427742,95.712904,9820.143950
404.674762,153.140646,114.855485,9896.714274
404.677256,57.427742,191.425808,9858.429112
404.679750,-19.142581,248.853550,9915.856854
404.682245,114.855485,172.283227,9877.571693
404.684739,38.285162,95.712904,9801.001370
404.687233,133.998066,38.285162,9973.284597
404.689727,19.142581,114.855485,9762.716208
404.692222,191.425808,114.855485,9839.286531
404.694716,114.855485,114.855485,9686.145885
404.697210,191.425808,172.283227,9877.571693
404.699705,-0.000000,95.712904,9954.142016
404.702199,19.142581,153.140646,9896.714274
404.704693,19.142581,133.998066,9896.714274
404.707188,57.427742,95.712904,9801.001370
404.709682,133.998066,172.283227,9877.571693
404.712176,76.570323,76.570323,9590.432981
404.714671,210.568389,57.427742,9934.999435
404.717165,57.427742,95.712904,9724.431046
404.719659,153.140646,172.283227,9934.999435
404.722154,153.140646,248.853550,9877.571693
404.724648,76.570323,172.283227,9896.714274
404.727142,133.998066,114.855485,9820.143950
404.729637,-57.427742,76.570323,9820.143950
404.732131,172.283227,95.712904,9896.714274
404.734625,19.142581,76.570323,9667.003304
404.737120,210.568389,57.427742,9973.284597
404.739614,114.855485,248.853550,9973.284597
404.742108,-19.142581,133.998066,9801.001370
404.744602,76.570323,114.855485,9858.429112
404.747097,19.142581,95.712904,9934.999435
404.749591,153.140646,172.283227,9973.284597
404.752085,-38.285162,114.855485,9724.431046
404.754580,133.998066,210.568389,9877.571693
404.757074,57.427742,248.853550,9743.573627
404.759568,153.140646,133.998066,9934.999435
404.762063,114.855485,191.425808,9743.573627
404.764557,133.998066,114.855485,9877.571693
404.767051,19.142581,133.998066,9896.714274
404.769546,38.285162,229.710970,9915.856854
404.772040,19.142581,248.853550,9915.856854
404.774536,-19.142581,191.425808,9801.001370
404.777032,248.853550,248.853550,9858.429112
404.779528,76.570323,172.283227,9762.716208
404.782024,191.425808,229.710970,9877.571693
404.784520,76.570323,210.568389,9801.001370
404.787016,19.142581,153.140646,9915.856854
404.789512,-19.142581,229.710970,9954.142016
404.792008,19.142581,153.140646,9801.001370
404.794504,95.712904,248.853550,9954.142016
404.797000,-57.427742,95.712904,9743.573627
404.799496,248.853550,267.996131,9858.429112
404.801992,57.427742,191.425808,9647.860723
404.804488,191.425808,191.425808,9877.571693
404.806984,133.998066,229.710970,9743.573627
404.809480,19.142581,248.853550,9839.286531
404.811976,76.570323,172.283227,9801.001370
404.814472,-19.142581,287.138712,9992.427178
404.816969,-19.142581,229.710970,10030.712339
404.819465,-57.427742,172.283227,9724.431046
404.821961,210.568389,229.710970,9934.999435
404.824457,57.427742,153.140646,9743.573627
404.826953,229.710970,172.283227,9915.856854
404.829449,76.570323,210.568389,9762.716208
404.831945,57.427742,229.710970,9896.714274
404.834441,19.142581,267.996131,9973.284597
404.836937,-76.570323,133.998066,9858.429112
404.839433,172.283227,248.853550,9915.856854
404.841929,-38.285162,172.283227,9686.145885
404.844425,191.425808,153.140646,9839.286531
404.846921,19.142581,153.140646,9724.431046
404.849417,133.998066,191.425808,9877.571693
404.851913,114.855485,114.855485,9762.716208
404.854409,114.855485,114.855485,9858.429112
404.856905,95.712904,133.998066,9973.284597
404.859401,38.285162,172.283227,9915.856854
404.861897,-19.142581,114.855485,9915.856854
404.864393,76.570323,191.425808,9839.286531
404.866889,133.998066,210.568389,9839.286531
404.869385,95.712904,153.140646,9647.860723
404.871881,191.425808,95.712904,9839.286531
404.874379,38.285162,76.570323,9801.001370
404.876876,76.570323,57.427742,9934.999435
404.879374,38.285162,76.570323,10049.854920
404.881872,38.285162,172.283227,9973.284597
404.884369,-19.142581,133.998066,9934.999435
404.886867,76.570323,248.853550,9724.431046
404.889364,267.996131,172.283227,9896.714274
404.891862,57.427742,172.283227,9724.431046
404.894360,57.427742,76.570323,9858.429112
404.896857,133.998066,172.283227,9686.145885
404.899355,153.140646,57.427742,9781.858789
404.901852,38.285162,38.285162,9877.571693
404.904350,19.142581,95.712904,9954.142016
404.906848,-133.998066,76.570323,9877.571693
404.909345,-0.000000,267.996131,9724.431046
404.911843,76.570323,172.283227,9877.571693
404.914340,76.570323,133.998066,9724.431046
404.916838,248.853550,95.712904,9801.001370
404.919336,133.998066,172.283227,9801.001370
404.921833,153.140646,153.140646,9858.429112
404.924331,76.570323,172.283227,9877.571693
404.926828,38.285162,76.570323,9877.571693
404.929326,76.570323,229.710970,9858.429112
404.931824,57.427742,191.425808,9762.716208
404.934321,95.712904,114.855485,9896.714274
404.936819,57.427742,153.140646,9686.145885
404.939316,153.140646,133.998066,9934.999435
404.941814,114.855485,95.712904,9781.858789
404.944311,76.570323,248.853550,9915.856854
404.946809,38.285162,153.140646,9954.142016
404.949307,-57.427742,248.853550,9896.714274
404.951804,153.140646,248.853550,10011.569758
404.954302,95.712904,153.140646,9743.573627
404.956799,133.998066,191.425808,9801.001370
404.959297,95.712904,76.570323,9724.431046
404.961795,114.855485,153.140646,9934.999435
404.964292,57.427742,229.710970,9915.856854
404.966790,57.427742,172.283227,9915.856854
404.969287,76.570323,325.423874,9973.284597
404.971785,-38.285162,248.853550,9839.286531
404.974229,153.140646,248.853550,10011.569758
404.976673,-38.285162,210.568389,9705.288466
404.979118,210.568389,248.853550,9839.286531
404.981562,76.570323,210.568389,9724.431046
404.984006,133.998066,344.566454,9858.429112
404.986450,76.570323,210.568389,9781.858789
404.988894,76.570323,114.855485,9877.571693
404.991339,19.142581,287.138712,9954.142016
404.993783,-133.998066,153.140646,9954.142016
404.996227,57.427742,287.138712,9896.714274
404.998671,57.427742,267.996131,9647.860723
405.001115,153.140646,229.710970,9781.858789
405.003559,133.998066,114.855485,9820.143950
405.006004,133.998066,114.855485,9858.429112
405.008448,19.142581,210.568389,9820.143950
405.010892,76.570323,287.138712,9839.286531
405.013336,-76.570323,114.855485,9915.856854
405.015780,-38.285162,172.283227,9915.856854
405.018225,114.855485,133.998066,9915.856854
405.020669,57.427742,153.140646,9705.288466
405.023113,172.283227,363.709035,9820.143950
405.025557,114.855485,172.283227,9743.573627
405.028001,133.998066,191.425808,9877.571693
405.030445,153.140646,114.855485,9762.716208
405.032890,114.855485,114.855485,9858.429112
405.035334,-57.427742,114.855485,9915.856854
405.037778,38.285162,229.710970,9992.427178
405.040222,38.285162,287.138712,9954.142016
405.042666,-38.285162,114.855485,9781.858789
405.045111,229.710970,153.140646,9839.286531
405.047555,153.140646,76.570323,9820.143950
405.049999,210.568389,95.712904,9877.571693
405.052443,114.855485,172.283227,9801.001370
405.054887,76.570323,172.283227,9877.571693
405.057331,57.427742,172.283227,9934.999435
405.059776,76.570323,172.283227,9858.429112
405.062220,133.998066,133.998066,9858.429112
405.064664,95.712904,191.425808,9647.860723
405.067108,95.712904,95.712904,9781.858789
405.069552,38.285162,76.570323,9820.143950
405.072012,153.140646,76.570323,9877.571693
405.074472,191.425808,133.998066,9781.858789
405.076931,57.427742,95.712904,9820.143950
405.079391,38.285162,114.855485,9896.714274
405.081851,19.142581,153.140646,9858.429112
405.084311,-95.712904,191.425808,9896.714274
405.086770,76.570323,114.855485,9858.429112
405.089230,76.570323,76.570323,9896.714274
405.091690,114.855485,229.710970,9781.858789
405.094149,95.712904,57.427742,9820.143950
405.096609,114.855485,133.998066,9915.856854
405.099069,95.712904,95.712904,9896.714274
405.101528,38.285162,172.283227,9973.284597
405.103988,38.285162,153.140646,9934.999435
405.106448,76.570323,114.855485,9839.286531
405.108907,114.855485,229.710970,9762.716208
405.111367,76.570323,0.000000,9858.429112
405.113827,133.998066,95.712904,9724.431046
405.116287,172.283227,153.140646,9858.429112
405.118746,19.142581,210.568389,9724.431046
405.121206,191.425808,114.855485,9934.999435
405.123666,-0.000000,133.998066,9896.714274
405.126125,-19.142581,114.855485,9896.714274
405.128585,-0.000000,133.998066,9858.429112
405.131045,76.570323,210.568389,9858.429112
405.133504,76.570323,210.568389,9820.143950
405.135964,95.712904,133.998066,9686.145885
