#time,accel_x,accel_y,accel_z
279.231441,57.427742,210.568389,9934.999435
279.234236,153.140646,287.138712,9801.001370
279.237030,57.427742,229.710970,9781.858789
279.239825,95.712904,210.568389,9820.143950
279.242619,76.570323,172.283227,9877.571693
279.245413,-19.142581,153.140646,9801.001370
279.248208,114.855485,153.140646,9820.143950
279.251002,57.427742,95.712904,9839.286531
279.253797,95.712904,95.712904,9896.714274
279.256591,114.855485,57.427742,9896.714274
279.259385,76.570323,210.568389,9858.429112
279.262180,76.570323,191.425808,9801.001370
279.264974,153.140646,191.425808,9743.573627
279.267769,19.142581,57.427742,9743.573627
279.270563,133.998066,19.142581,9915.856854
279.273357,76.570323,76.570323,9724.431046
279.276152,19.142581,267.996131,9781.858789
279.278946,95.712904,287.138712,9896.714274
279.281741,114.855485,267.996131,9915.856854
279.284535,38.285162,153.140646,9954.142016
279.287329,153.140646,133.998066,10049.854920
279.290124,38.285162,210.568389,9915.856854
279.292816,-76.570323,76.570323,9820.143950
279.295509,76.570323,133.998066,9992.427178
279.298202,153.140646,153.140646,9973.284597
279.300894,19.142581,248.853550,9781.858789
279.303587,19.142581,153.140646,9858.429112
279.306279,19.142581,191.425808,9839.286531
279.308972,-19.142581,76.570323,9743.573627
279.311665,38.285162,76.570323,9820.143950
279.314357,76.570323,114.855485,9877.571693
279.317050,38.285162,172.283227,9705.288466
279.319742,57.427742,191.425808,9705.288466
279.322435,133.998066,210.568389,9762.716208
279.325128,95.712904,114.855485,9839.286531
279.327820,76.570323,114.855485,9877.571693
279.330513,57.427742,172.283227,9954.142016
279.333205,57.427742,172.283227,9973.284597
279.335898,57.427742,191.425808,9934.999435
279.338591,133.998066,133.998066,9858.429112
279.341283,114.855485,210.568389,9877.571693
279.343976,114.855485,210.568389,9877.571693
279.346668,133.998066,229.710970,9801.001370
279.349361,95.712904,114.855485,9877.571693
279.352054,57.427742,191.425808,9934.999435
279.354746,76.570323,114.855485,9820.143950
279.357439,-0.000000,133.998066,9781.858789
279.360131,-19.142581,133.998066,9820.143950
279.362824,19.142581,191.425808,9762.716208
279.365517,76.570323,153.140646,9839.286531
279.368209,19.142581,153.140646,9839.286531
279.370902,76.570323,172.283227,9839.286531
279.373594,19.142581,191.425808,9858.429112
279.376287,76.570323,229.710970,9801.001370
279.378979,76.570323,153.140646,9762.716208
279.381672,114.855485,114.855485,9820.143950
279.384365,76.570323,191.425808,9858.429112
279.387057,76.570323,210.568389,9839.286531
279.389750,191.425808,248.853550,9896.714274
279.392442,19.142581,191.425808,9839.286531
279.395135,153.140646,191.425808,9934.999435
279.397828,76.570323,172.283227,9839.286531
279.400458,19.142581,172.283227,9896.714274
279.403088,38.285162,172.283227,9915.856854
279.405719,57.427742,191.425808,9877.571693
279.408349,76.570323,114.855485,9877.571693
279.410980,19.142581,95.712904,9934.999435
279.413610,95.712904,114.855485,9801.001370
279.416240,57.427742,95.712904,9781.858789
279.418871,-19.142581,76.570323,9858.429112
279.421501,210.568389,191.425808,9801.001370
279.424131,-0.000000,153.140646,9839.286531
279.426762,95.712904,172.283227,9762.716208
279.429392,19.142581,153.140646,9781.858789
279.432023,19.142581,133.998066,9781.858789
279.434653,57.427742,133.998066,9858.429112
279.437283,95.712904,114.855485,9877.571693
279.439914,57.427742,114.855485,9839.286531
279.442544,76.570323,172.283227,9877.571693
279.445174,114.855485,229.710970,9896.714274
279.447805,95.712904,287.138712,9839.286531
279.450435,114.855485,210.568389,9839.286531
279.453066,114.855485,153.140646,9877.571693
279.455696,57.427742,95.712904,9839.286531
279.458326,57.427742,133.998066,9858.429112
279.460957,57.427742,114.855485,9896.714274
279.463587,114.855485,172.283227,9858.429112
279.466217,95.712904,248.853550,9934.999435
279.468848,95.712904,287.138712,9781.858789
279.471478,95.712904,114.855485,9801.001370
279.474109,95.712904,172.283227,9820.143950
279.476739,76.570323,114.855485,9762.716208
279.479369,38.285162,76.570323,9820.143950
279.482000,95.712904,76.570323,9896.714274
279.484630,57.427742,133.998066,9877.571693
279.487260,19.142581,133.998066,9896.714274
279.489891,57.427742,229.710970,9896.714274
279.492521,76.570323,210.568389,9820.143950
279.495152,76.570323,172.283227,9762.716208
279.497782,19.142581,248.853550,9896.714274
279.500412,114.855485,114.855485,9877.571693
279.503043,57.427742,95.712904,9839.286531
279.505629,114.855485,210.568389,9877.571693
279.508216,76.570323,229.710970,9858.429112
279.510803,95.712904,210.568389,9858.429112
279.513389,57.427742,248.853550,9934.999435
279.515976,76.570323,172.283227,9858.429112
279.518563,57.427742,114.855485,9858.429112
279.521150,114.855485,191.425808,9877.571693
279.523736,76.570323,153.140646,9762.716208
279.526323,38.285162,95.712904,9896.714274
279.528910,95.712904,191.425808,9934.999435
279.531496,76.570323,229.710970,9801.001370
279.534083,76.570323,172.283227,9858.429112
279.536670,19.142581,153.140646,9801.001370
279.539256,-0.000000,210.568389,9839.286531
279.541843,19.142581,153.140646,9781.858789
279.544430,57.427742,57.427742,9839.286531
279.547017,57.427742,57.427742,9801.001370
279.549603,19.142581,133.998066,9801.001370
279.552190,76.570323,210.568389,9762.716208
279.554777,95.712904,287.138712,9762.716208
279.557363,95.712904,287.138712,9801.001370
279.559950,38.285162,114.855485,9915.856854
279.562537,114.855485,133.998066,9934.999435
279.565123,57.427742,114.855485,9896.714274
279.567710,57.427742,133.998066,9934.999435
279.570297,57.427742,172.283227,9896.714274
279.572884,57.427742,306.281293,9896.714274
279.575470,95.712904,287.138712,9781.858789
279.578057,133.998066,191.425808,9839.286531
279.580644,38.285162,114.855485,9915.856854
279.583230,57.427742,133.998066,9743.573627
279.585817,-0.000000,133.998066,9839.286531
279.588404,114.855485,95.712904,9801.001370
279.590990,76.570323,114.855485,9820.143950
279.593577,19.142581,153.140646,9781.858789
279.596164,76.570323,191.425808,9781.858789
279.598750,95.712904,191.425808,9877.571693
279.601337,38.285162,114.855485,9915.856854
279.603924,95.712904,153.140646,9820.143950
279.606511,114.855485,95.712904,9839.286531
279.609059,57.427742,133.998066,9934.999435
279.611618,76.570323,229.710970,9877.571693
279.614177,76.570323,172.283227,9820.143950
279.616736,95.712904,191.425808,9954.142016
279.619296,19.142581,191.425808,9801.001370
279.621855,57.427742,95.712904,9896.714274
279.624414,76.570323,114.855485,9839.286531
279.626973,76.570323,114.855485,9820.143950
279.629532,19.142581,133.998066,9896.714274
279.632091,76.570323,114.855485,9858.429112
279.634650,76.570323,172.283227,9839.286531
279.637209,95.712904,191.425808,9877.571693
279.639768,57.427742,172.283227,9877.571693
279.642328,-19.142581,191.425808,9839.286531
279.644887,76.570323,172.283227,9762.716208
279.647446,114.855485,95.712904,9781.858789
279.650005,57.427742,95.712904,9820.143950
279.652564,114.855485,114.855485,9820.143950
279.655123,76.570323,172.283227,9820.143950
279.657682,76.570323,229.710970,9839.286531
279.660241,114.855485,153.140646,9915.856854
279.662800,57.427742,191.425808,9877.571693
279.665360,38.285162,76.570323,9839.286531
279.667919,57.427742,153.140646,9934.999435
279.670478,114.855485,114.855485,9801.001370
279.673037,38.285162,133.998066,9877.571693
279.675596,114.855485,229.710970,9896.714274
279.678155,133.998066,210.568389,9877.571693
279.680714,114.855485,172.283227,9877.571693
279.683273,76.570323,172.283227,9877.571693
279.685832,114.855485,114.855485,9877.571693
279.688391,76.570323,114.855485,9820.143950
279.690951,133.998066,210.568389,9839.286531
279.693510,76.570323,191.425808,9781.858789
279.696069,95.712904,191.425808,9743.573627
279.698628,95.712904,172.283227,9858.429112
279.701187,76.570323,210.568389,9820.143950
279.703746,38.285162,76.570323,9820.143950
279.706305,19.142581,191.425808,9896.714274
279.708864,38.285162,76.570323,9839.286531
279.711404,95.712904,114.855485,9781.858789
279.713943,114.855485,191.425808,9877.571693
279.716483,19.142581,267.996131,9801.001370
279.719022,76.570323,229.710970,9858.429112
279.721562,76.570323,210.568389,9877.571693
279.724101,153.140646,95.712904,9839.286531
279.726641,153.140646,133.998066,9934.999435
279.729180,57.427742,153.140646,9934.999435
279.731719,114.855485,210.568389,9877.571693
279.734259,76.570323,210.568389,9877.571693
279.736798,114.855485,229.710970,9858.429112
279.739338,57.427742,306.281293,9839.286531
279.741877,76.570323,153.140646,9877.571693
279.744417,76.570323,114.855485,9877.571693
279.746956,38.285162,76.570323,9781.858789
279.749496,76.570323,76.570323,9896.714274
279.752035,95.712904,191.425808,9934.999435
279.754575,57.427742,287.138712,9801.001370
279.757114,76.570323,229.710970,9839.286531
279.759653,38.285162,191.425808,9915.856854
279.762193,76.570323,153.140646,9839.286531
279.764732,76.570323,210.568389,9858.429112
279.767272,76.570323,114.855485,9820.143950
279.769811,38.285162,76.570323,9877.571693
279.772351,76.570323,229.710970,9820.143950
279.774890,95.712904,191.425808,9877.571693
279.777430,38.285162,267.996131,9820.143950
279.779969,114.855485,287.138712,9839.286531
279.782509,38.285162,153.140646,9896.714274
279.785048,95.712904,76.570323,9896.714274
279.787587,57.427742,133.998066,9934.999435
279.790127,114.855485,95.712904,9839.286531
279.792666,114.855485,172.283227,9820.143950
279.795206,-0.000000,210.568389,9858.429112
279.797745,57.427742,191.425808,9877.571693
279.800285,57.427742,153.140646,9934.999435
279.802824,19.142581,153.140646,9820.143950
279.805364,57.427742,95.712904,9820.143950
279.807903,38.285162,95.712904,9896.714274
279.810443,-0.000000,38.285162,9877.571693
279.812969,76.570323,229.710970,9762.716208
279.815495,76.570323,153.140646,9762.716208
279.818022,19.142581,210.568389,9781.858789
279.820548,133.998066,210.568389,9820.143950
279.823074,57.427742,191.425808,9934.999435
279.825601,19.142581,95.712904,9934.999435
279.828127,19.142581,95.712904,9934.999435
279.830654,19.142581,133.998066,9896.714274
279.833180,95.712904,210.568389,9877.571693
279.835706,57.427742,287.138712,9839.286531
279.838233,114.855485,191.425808,9801.001370
279.840759,133.998066,114.855485,9877.571693
279.843285,95.712904,172.283227,9839.286531
279.845812,19.142581,114.855485,9839.286531
279.848338,76.570323,57.427742,9915.856854
279.850865,76.570323,172.283227,9839.286531
279.853391,-0.000000,191.425808,9820.143950
279.855917,76.570323,229.710970,9858.429112
279.858444,57.427742,248.853550,9858.429112
279.860970,76.570323,133.998066,9896.714274
279.863496,114.855485,95.712904,9839.286531
279.866023,95.712904,114.855485,9801.001370
279.868549,57.427742,57.427742,9839.286531
279.871076,76.570323,172.283227,9801.001370
279.873602,57.427742,114.855485,9801.001370
279.876128,57.427742,344.566454,9858.429112
279.878655,38.285162,267.996131,9839.286531
279.881181,-19.142581,267.996131,9801.001370
279.883707,57.427742,95.712904,9801.001370
279.886234,76.570323,114.855485,9877.571693
279.888760,-19.142581,191.425808,9839.286531
279.891287,76.570323,153.140646,9820.143950
279.893813,76.570323,153.140646,9839.286531
279.896339,57.427742,287.138712,9781.858789
279.898866,57.427742,153.140646,9877.571693
279.901392,114.855485,210.568389,9877.571693
279.903918,95.712904,95.712904,9801.001370
279.906445,57.427742,76.570323,9839.286531
279.908971,57.427742,95.712904,9839.286531
279.911498,76.570323,114.855485,9858.429112
279.914014,76.570323,153.140646,9896.714274
279.916531,38.285162,267.996131,9877.571693
279.919048,95.712904,210.568389,9801.001370
279.921564,95.712904,172.283227,9877.571693
279.924081,57.427742,191.425808,9858.429112
279.926598,38.285162,114.855485,9839.286531
279.929115,19.142581,153.140646,9820.143950
279.931631,114.855485,191.425808,9839.286531
279.934148,133.998066,210.568389,9877.571693
279.936665,76.570323,210.568389,9858.429112
279.939181,95.712904,210.568389,9820.143950
279.941698,95.712904,172.283227,9858.429112
279.944215,95.712904,210.568389,9839.286531
279.946732,153.140646,95.712904,9839.286531
279.949248,95.712904,76.570323,9915.856854
279.951765,76.570323,153.140646,9820.143950
279.954282,38.285162,248.853550,9858.429112
279.956799,57.427742,153.140646,9934.999435
279.959315,19.142581,248.853550,9801.001370
279.961832,19.142581,172.283227,9820.143950
279.964349,76.570323,114.855485,9877.571693
279.966865,57.427742,114.855485,9858.429112
279.969382,57.427742,95.712904,9781.858789
279.971899,114.855485,114.855485,9858.429112
279.974416,19.142581,153.140646,9801.001370
279.976932,19.142581,191.425808,9839.286531
279.979449,19.142581,153.140646,9896.714274
279.981966,76.570323,114.855485,9820.143950
279.984482,114.855485,114.855485,9877.571693
279.986999,57.427742,76.570323,9839.286531
279.989516,57.427742,153.140646,9934.999435
279.992033,133.998066,191.425808,9820.143950
279.994549,76.570323,229.710970,9858.429112
279.997066,19.142581,210.568389,9858.429112
279.999583,76.570323,191.425808,9896.714274
280.002099,76.570323,172.283227,9801.001370
280.004616,57.427742,57.427742,9858.429112
280.007133,95.712904,172.283227,9877.571693
280.009650,57.427742,172.283227,9820.143950
280.012166,19.142581,153.140646,9801.001370
280.014676,76.570323,210.568389,9820.143950
280.017186,38.285162,172.283227,9915.856854
280.019696,38.285162,114.855485,9896.714274
280.022205,76.570323,76.570323,9915.856854
280.024715,114.855485,172.283227,9820.143950
280.027225,114.855485,153.140646,9839.286531
280.029734,57.427742,95.712904,9858.429112
280.032244,19.142581,191.425808,9896.714274
280.034754,95.712904,229.710970,9762.716208
280.037264,19.142581,248.853550,9839.286531
280.039773,76.570323,210.568389,9858.429112
280.042283,114.855485,76.570323,9915.856854
280.044793,114.855485,133.998066,9934.999435
280.047303,38.285162,133.998066,9877.571693
280.049812,133.998066,172.283227,9858.429112
280.052322,76.570323,153.140646,9820.143950
280.054832,76.570323,210.568389,9858.429112
280.057342,114.855485,153.140646,9877.571693
280.059851,76.570323,210.568389,9839.286531
280.062361,57.427742,114.855485,9781.858789
280.064871,95.712904,114.855485,9801.001370
280.067381,95.712904,114.855485,9896.714274
280.069890,76.570323,191.425808,9858.429112
280.072400,95.712904,210.568389,9858.429112
280.074910,-19.142581,267.996131,9839.286531
280.077420,19.142581,267.996131,9801.001370
280.079929,38.285162,133.998066,9877.571693
280.082439,95.712904,114.855485,9839.286531
280.084949,38.285162,95.712904,9858.429112
280.087459,-0.000000,114.855485,9743.573627
280.089968,114.855485,229.710970,9877.571693
280.092478,95.712904,229.710970,9858.429112
280.094988,76.570323,229.710970,9762.716208
280.097498,76.570323,229.710970,9839.286531
280.100007,114.855485,172.283227,9877.571693
280.102517,114.855485,114.855485,9801.001370
280.105027,153.140646,95.712904,9839.286531
280.107537,95.712904,76.570323,9858.429112
280.110046,57.427742,229.710970,9820.143950
280.112556,38.285162,325.423874,9820.143950
280.114952,19.142581,287.138712,9934.999435
280.117349,19.142581,248.853550,9801.001370
280.119745,76.570323,114.855485,9839.286531
280.122142,76.570323,114.855485,9762.716208
280.124538,76.570323,76.570323,9896.714274
280.126934,76.570323,114.855485,9858.429112
280.129331,76.570323,114.855485,9858.429112
280.131727,114.855485,229.710970,9820.143950
280.134124,95.712904,229.710970,9801.001370
280.136520,76.570323,287.138712,9877.571693
280.138916,38.285162,114.855485,9896.714274
280.141313,19.142581,133.998066,9801.001370
280.143709,38.285162,76.570323,9801.001370
280.146106,95.712904,114.855485,9820.143950
280.148502,38.285162,153.140646,9877.571693
280.150898,76.570323,287.138712,9877.571693
280.153295,57.427742,306.281293,9839.286531
280.155691,114.855485,229.710970,9877.571693
280.158088,19.142581,191.425808,9801.001370
280.160484,76.570323,76.570323,9915.856854
280.162880,57.427742,95.712904,9896.714274
280.165277,19.142581,133.998066,9839.286531
280.167673,19.142581,248.853550,9801.001370
280.170070,19.142581,248.853550,9896.714274
280.172466,76.570323,229.710970,9877.571693
280.174862,76.570323,210.568389,9858.429112
280.177259,114.855485,153.140646,9858.429112
280.179655,95.712904,76.570323,9896.714274
280.182052,19.142581,38.285162,9934.999435
280.184448,38.285162,133.998066,9762.716208
280.186844,76.570323,210.568389,9877.571693
280.189241,76.570323,114.855485,9934.999435
280.191637,76.570323,229.710970,9877.571693
280.194033,76.570323,210.568389,9877.571693
280.196430,95.712904,172.283227,9762.716208
280.198826,38.285162,76.570323,9858.429112
280.201223,57.427742,95.712904,9820.143950
280.203619,38.285162,153.140646,9820.143950
280.206015,76.570323,210.568389,9858.429112
280.208412,114.855485,229.710970,9801.001370
280.210744,76.570323,229.710970,9801.001370
280.213077,57.427742,248.853550,9954.142016
280.215410,57.427742,114.855485,9839.286531
280.217742,38.285162,76.570323,9877.571693
280.220075,133.998066,114.855485,9762.716208
280.222408,114.855485,95.712904,9801.001370
280.224740,76.570323,153.140646,9762.716208
280.227073,57.427742,287.138712,9839.286531
280.229405,76.570323,229.710970,9839.286531
280.231738,76.570323,172.283227,9858.429112
280.234071,38.285162,172.283227,9915.856854
280.236403,57.427742,114.855485,9858.429112
280.238736,57.427742,95.712904,9781.858789
280.241068,114.855485,114.855485,9762.716208
280.243401,76.570323,210.568389,9858.429112
280.245734,19.142581,229.710970,9781.858789
280.248066,114.855485,229.710970,9820.143950
280.250399,76.570323,172.283227,9877.571693
280.252732,76.570323,114.855485,9820.143950
280.255064,76.570323,114.855485,9839.286531
280.257397,76.570323,114.855485,9877.571693
280.259729,57.427742,95.712904,9839.286531
280.262062,76.570323,153.140646,9762.716208
280.264395,133.998066,267.996131,9915.856854
280.266727,76.570323,287.138712,9801.001370
280.269060,76.570323,172.283227,9877.571693
280.271393,38.285162,153.140646,9896.714274
280.273725,114.855485,153.140646,9877.571693
280.276058,57.427742,114.855485,9858.429112
280.278390,19.142581,153.140646,9858.429112
280.280723,76.570323,210.568389,9839.286531
280.283056,38.285162,248.853550,9820.143950
280.285388,57.427742,229.710970,9896.714274
280.287721,57.427742,95.712904,9896.714274
280.290053,76.570323,172.283227,9858.429112
280.292386,133.998066,172.283227,9839.286531
280.294719,76.570323,153.140646,9820.143950
280.297051,114.855485,153.140646,9934.999435
280.299384,57.427742,191.425808,9934.999435
280.301717,76.570323,210.568389,9820.143950
280.304106,57.427742,153.140646,9877.571693
280.306496,76.570323,210.568389,9858.429112
280.308885,76.570323,114.855485,9877.571693
280.311275,76.570323,114.855485,9820.143950
280.313665,57.427742,95.712904,9801.001370
280.316054,76.570323,172.283227,9820.143950
280.318444,191.425808,248.853550,9820.143950
280.320834,114.855485,133.998066,9877.571693
280.323223,114.855485,210.568389,9820.143950
280.325613,76.570323,114.855485,9839.286531
280.328003,76.570323,210.568389,9839.286531
280.330392,57.427742,95.712904,9801.001370
280.332782,76.570323,114.855485,9877.571693
280.335171,19.142581,133.998066,9781.858789
280.337561,57.427742,267.996131,9820.143950
280.339951,76.570323,229.710970,9858.429112
280.342340,19.142581,210.568389,9896.714274
280.344730,38.285162,133.998066,9877.571693
280.347120,95.712904,153.140646,9839.286531
280.349509,57.427742,95.712904,9839.286531
280.351899,95.712904,114.855485,9858.429112
280.354289,114.855485,210.568389,9877.571693
280.356678,19.142581,248.853550,9839.286531
280.359068,95.712904,172.283227,9839.286531
280.361457,76.570323,76.570323,9915.856854
280.363847,19.142581,114.855485,9934.999435
280.366237,38.285162,76.570323,9820.143950
280.368626,76.570323,210.568389,9820.143950
280.371016,95.712904,114.855485,9820.143950
280.373406,76.570323,172.283227,9858.429112
280.375795,76.570323,153.140646,9858.429112
280.378185,95.712904,172.283227,9934.999435
280.380575,57.427742,191.425808,9934.999435
280.382964,19.142581,248.853550,9801.001370
280.385354,19.142581,191.425808,9839.286531
280.387743,76.570323,114.855485,9762.716208
280.390133,114.855485,76.570323,9724.431046
280.392523,95.712904,210.568389,9858.429112
280.394912,19.142581,191.425808,9781.858789
280.397302,76.570323,210.568389,9801.001370
280.399734,114.855485,229.710970,9877.571693
280.402166,153.140646,114.855485,9858.429112
280.404597,76.570323,172.283227,9820.143950
280.407029,95.712904,191.425808,9934.999435
280.409461,76.570323,229.710970,9858.429112
280.411893,76.570323,210.568389,9762.716208
280.414324,76.570323,229.710970,9877.571693
280.416756,57.427742,191.425808,9877.571693
280.419188,57.427742,114.855485,9820.143950
280.421620,19.142581,133.998066,9839.286531
280.424051,38.285162,153.140646,9915.856854
280.426483,19.142581,133.998066,9801.001370
280.428915,114.855485,191.425808,9858.429112
280.431347,76.570323,210.568389,9762.716208
280.433779,76.570323,229.710970,9820.143950
280.436210,57.427742,229.710970,9781.858789
280.438642,57.427742,172.283227,9743.573627
280.441074,76.570323,172.283227,9820.143950
280.443506,153.140646,95.712904,9896.714274
280.445937,57.427742,114.855485,9858.429112
280.448369,19.142581,248.853550,9801.001370
280.450801,19.142581,153.140646,9877.571693
280.453233,76.570323,210.568389,9839.286531
280.455664,76.570323,114.855485,9877.571693
280.458096,76.570323,210.568389,9839.286531
280.460528,114.855485,172.283227,9877.571693
280.462960,57.427742,172.283227,9743.573627
280.465391,76.570323,248.853550,9896.714274
280.467823,114.855485,172.283227,9762.716208
280.470255,95.712904,229.710970,9839.286531
280.472687,57.427742,191.425808,9877.571693
280.475119,-57.427742,210.568389,9781.858789
280.477550,38.285162,172.283227,9915.856854
280.479982,19.142581,95.712904,9934.999435
280.482414,76.570323,114.855485,9762.716208
280.484846,76.570323,114.855485,9839.286531
280.487277,114.855485,114.855485,9762.716208
280.489709,95.712904,210.568389,9820.143950
280.492141,114.855485,229.710970,9896.714274
280.494573,38.285162,153.140646,9915.856854
280.496956,114.855485,229.710970,9877.571693
280.499339,76.570323,114.855485,9858.429112
280.501722,153.140646,57.427742,9896.714274
280.504105,191.425808,153.140646,9896.714274
280.506488,95.712904,114.855485,9801.001370
280.508871,76.570323,172.283227,9801.001370
280.511254,19.142581,248.853550,9858.429112
280.513637,57.427742,191.425808,9877.571693
280.516020,19.142581,191.425808,9801.001370
280.518403,57.427742,95.712904,9896.714274
280.520786,38.285162,114.855485,9839.286531
280.523169,95.712904,172.283227,9762.716208
280.525552,76.570323,172.283227,9820.143950
280.527935,38.285162,229.710970,9915.856854
280.530318,19.142581,210.568389,9762.716208
280.532701,76.570323,114.855485,9839.286531
280.535084,95.712904,172.283227,9934.999435
280.537467,57.427742,76.570323,9839.286531
280.539850,19.142581,172.283227,9801.001370
280.542233,76.570323,114.855485,9801.001370
280.544616,76.570323,210.568389,9762.716208
280.546999,76.570323,210.568389,9820.143950
280.549382,114.855485,191.425808,9877.571693
280.551765,19.142581,191.425808,9858.429112
280.554149,19.142581,114.855485,9858.429112
280.556532,76.570323,114.855485,9858.429112
280.558915,76.570323,114.855485,9858.429112
280.561298,76.570323,172.283227,9820.143950
280.563681,19.142581,153.140646,9801.001370
280.566064,76.570323,248.853550,9820.143950
280.568447,76.570323,229.710970,9820.143950
280.570830,114.855485,210.568389,9877.571693
280.573213,76.570323,172.283227,9896.714274
280.575596,57.427742,210.568389,9915.856854
280.577979,19.142581,172.283227,9839.286531
280.580362,95.712904,114.855485,9762.716208
280.582745,76.570323,172.283227,9839.286531
280.585128,19.142581,191.425808,9858.429112
280.587511,57.427742,287.138712,9820.143950
280.589894,19.142581,153.140646,9820.143950
280.592329,95.712904,153.140646,9934.999435
280.594758,76.570323,76.570323,9915.856854
280.597187,-0.000000,153.140646,9839.286531
280.599615,19.142581,191.425808,9781.858789
280.602044,133.998066,172.283227,9820.143950
280.604473,114.855485,172.283227,9877.571693
280.606902,38.285162,229.710970,9915.856854
280.609330,19.142581,153.140646,9896.714274
280.611759,38.285162,133.998066,9820.143950
280.614188,95.712904,57.427742,9801.001370
280.616617,57.427742,95.712904,9839.286531
280.619045,57.427742,95.712904,9781.858789
280.621474,114.855485,210.568389,9762.716208
280.623903,38.285162,210.568389,9839.286531
280.626332,19.142581,153.140646,9858.429112
280.628760,19.142581,172.283227,9896.714274
280.631189,76.570323,114.855485,9839.286531
280.633618,76.570323,210.568389,9762.716208
280.636047,95.712904,114.855485,9839.286531
280.638476,76.570323,114.855485,9877.571693
280.640904,133.998066,210.568389,9839.286531
280.643333,19.142581,210.568389,9877.571693
280.645762,76.570323,172.283227,9858.429112
280.648191,19.142581,191.425808,9801.001370
280.650619,57.427742,95.712904,9896.714274
280.653048,114.855485,172.283227,9877.571693
280.655477,76.570323,114.855485,9839.286531
280.657906,-0.000000,191.425808,9858.429112
280.660334,76.570323,210.568389,9762.716208
280.662763,95.712904,229.710970,9820.143950
280.665192,19.142581,191.425808,9781.858789
280.667621,76.570323,153.140646,9820.143950
280.670049,95.712904,76.570323,9896.714274
280.672478,76.570323,114.855485,9858.429112
280.674907,95.712904,210.568389,9858.429112
280.677336,114.855485,153.140646,9877.571693
280.679764,114.855485,191.425808,9820.143950
280.682193,76.570323,210.568389,9839.286531
280.684622,57.427742,191.425808,9877.571693
280.687051,-57.427742,267.996131,9896.714274
280.689515,38.285162,76.570323,9858.429112
280.691980,19.142581,95.712904,9877.571693
280.694445,76.570323,172.283227,9877.571693
280.696910,38.285162,133.998066,9858.429112
280.699375,57.427742,287.138712,9801.001370
280.701839,38.285162,325.423874,9858.429112
280.704304,76.570323,191.425808,9801.001370
280.706769,38.285162,76.570323,9820.143950
280.709234,76.570323,76.570323,9915.856854
280.711698,95.712904,57.427742,9839.286531
280.714163,57.427742,114.855485,9801.001370
280.716628,38.285162,210.568389,9934.999435
280.719093,114.855485,172.283227,9858.429112
280.721558,38.285162,248.853550,9858.429112
280.724022,57.427742,287.138712,9896.714274
280.726487,76.570323,210.568389,9820.143950
280.728952,57.427742,95.712904,9781.858789
280.731417,57.427742,95.712904,9896.714274
280.733882,57.427742,133.998066,9934.999435
280.736346,76.570323,191.425808,9839.286531
280.738811,-0.000000,325.423874,9858.429112
280.741276,76.570323,229.710970,9762.716208
280.743741,76.570323,229.710970,9801.001370
280.746205,114.855485,95.712904,9801.001370
280.748670,114.855485,57.427742,9915.856854
280.751135,-0.000000,76.570323,9839.286531
280.753600,19.142581,172.283227,9896.714274
280.756065,76.570323,229.710970,9839.286531
280.758529,133.998066,229.710970,9858.429112
280.760994,133.998066,76.570323,9839.286531
280.763459,57.427742,95.712904,9820.143950
280.765924,133.998066,153.140646,9801.001370
280.768388,76.570323,114.855485,9762.716208
280.770853,76.570323,153.140646,9839.286531
280.773318,76.570323,114.855485,9762.716208
280.775783,38.285162,38.285162,9839.286531
280.778248,76.570323,172.283227,9877.571693
280.780712,57.427742,229.710970,9992.427178
280.783177,114.855485,191.425808,9934.999435
280.785642,38.285162,172.283227,9839.286531
280.788134,57.427742,95.712904,9858.429112
280.790626,38.285162,76.570323,9762.716208
280.793118,76.570323,114.855485,9762.716208
280.795610,133.998066,172.283227,9781.858789
280.798102,76.570323,210.568389,9820.143950
280.800594,-19.142581,153.140646,9934.999435
280.803086,-19.142581,191.425808,10011.569758
280.805578,19.142581,172.283227,9954.142016
280.808070,114.855485,153.140646,9820.143950
280.810562,76.570323,95.712904,9762.716208
280.813054,114.855485,248.853550,9762.716208
280.815546,153.140646,287.138712,9781.858789
280.818038,19.142581,248.853550,9801.001370
280.820530,-76.570323,287.138712,9915.856854
280.823022,57.427742,133.998066,9954.142016
280.825514,57.427742,133.998066,9973.284597
280.828006,57.427742,133.998066,9877.571693
280.830498,95.712904,76.570323,9839.286531
280.832990,76.570323,172.283227,9820.143950
280.835482,76.570323,210.568389,9839.286531
280.837974,95.712904,229.710970,9839.286531
280.840466,76.570323,229.710970,9762.716208
280.842958,76.570323,172.283227,9743.573627
280.845450,57.427742,95.712904,9858.429112
280.847942,95.712904,76.570323,9973.284597
280.850434,19.142581,153.140646,9896.714274
280.852926,-57.427742,267.996131,9858.429112
280.855418,38.285162,267.996131,9858.429112
280.857910,57.427742,229.710970,9724.431046
280.860402,133.998066,114.855485,9762.716208
280.862894,229.710970,76.570323,9858.429112
280.865386,95.712904,-19.142581,9858.429112
280.867878,19.142581,76.570323,9954.142016
280.870370,38.285162,229.710970,9915.856854
280.872862,57.427742,229.710970,9915.856854
280.875354,38.285162,267.996131,9762.716208
280.877846,76.570323,153.140646,9801.001370
280.880338,133.998066,0.000000,9915.856854
280.882830,38.285162,76.570323,9762.716208
280.885322,95.712904,153.140646,9877.571693
280.887769,95.712904,210.568389,9934.999435
280.890215,-19.142581,191.425808,9781.858789
280.892661,19.142581,153.140646,9839.286531
280.895108,76.570323,114.855485,9801.001370
280.897554,133.998066,210.568389,9801.001370
280.900000,95.712904,114.855485,9762.716208
280.902447,76.570323,133.998066,9839.286531
280.904893,38.285162,114.855485,9915.856854
280.907339,-19.142581,114.855485,9896.714274
280.909786,76.570323,114.855485,9801.001370
280.912232,114.855485,191.425808,9647.860723
280.914678,153.140646,267.996131,9686.145885
280.917124,114.855485,229.710970,9820.143950
280.919571,153.140646,153.140646,9973.284597
280.922017,76.570323,76.570323,9992.427178
280.924463,38.285162,133.998066,9934.999435
280.926910,76.570323,76.570323,9915.856854
280.929356,38.285162,229.710970,9724.431046
280.931802,57.427742,267.996131,9686.145885
280.934249,114.855485,153.140646,9743.573627
280.936695,76.570323,76.570323,9915.856854
280.939141,95.712904,38.285162,9992.427178
280.941588,57.427742,133.998066,9973.284597
280.944034,19.142581,191.425808,9801.001370
280.946480,76.570323,191.425808,9858.429112
280.948927,153.140646,229.710970,9762.716208
280.951373,191.425808,210.568389,9743.573627
280.953819,191.425808,172.283227,9781.858789
280.956266,114.855485,210.568389,9839.286531
280.958712,76.570323,114.855485,10049.854920
280.961158,-19.142581,76.570323,10068.997501
280.963605,-38.285162,76.570323,10068.997501
280.966051,19.142581,133.998066,9839.286531
280.968497,95.712904,172.283227,9762.716208
280.970944,229.710970,76.570323,9743.573627
280.973390,191.425808,95.712904,9743.573627
280.975836,76.570323,191.425808,9820.143950
280.978282,-57.427742,191.425808,9915.856854
280.980729,-57.427742,191.425808,10088.140082
280.983175,57.427742,210.568389,9877.571693
280.985653,153.140646,172.283227,9743.573627
280.988130,153.140646,172.283227,9571.290400
280.990608,76.570323,172.283227,9858.429112
280.993086,38.285162,229.710970,9973.284597
280.995563,-0.000000,191.425808,9896.714274
280.998041,19.142581,248.853550,9839.286531
281.000519,76.570323,172.283227,9801.001370
281.002996,114.855485,114.855485,9762.716208
281.005474,114.855485,38.285162,9781.858789
281.007952,114.855485,95.712904,9839.286531
281.010429,19.142581,191.425808,9896.714274
281.012907,19.142581,248.853550,9896.714274
281.015385,38.285162,306.281293,9858.429112
281.017862,57.427742,95.712904,9801.001370
281.020340,57.427742,95.712904,9820.143950
281.022817,229.710970,38.285162,9820.143950
281.025295,57.427742,95.712904,9781.858789
281.027773,19.142581,306.281293,9705.288466
281.030250,57.427742,344.566454,9781.858789
281.032728,38.285162,267.996131,9858.429112
281.035206,19.142581,76.570323,9915.856854
281.037683,76.570323,57.427742,10030.712339
281.040161,19.142581,57.427742,9934.999435
281.042639,76.570323,210.568389,9839.286531
281.045116,76.570323,153.140646,9820.143950
281.047594,95.712904,114.855485,9820.143950
281.050072,76.570323,210.568389,9762.716208
281.052549,76.570323,229.710970,9762.716208
281.055027,76.570323,210.568389,9801.001370
281.057504,114.855485,191.425808,9762.716208
281.059982,114.855485,114.855485,9820.143950
281.062460,114.855485,57.427742,10030.712339
281.064937,19.142581,95.712904,10011.569758
281.067415,57.427742,248.853550,9934.999435
281.069893,57.427742,287.138712,9781.858789
281.072370,95.712904,153.140646,9743.573627
281.074848,229.710970,76.570323,9762.716208
281.077326,57.427742,57.427742,9820.143950
281.079803,38.285162,76.570323,9839.286531
281.082281,38.285162,172.283227,9915.856854
281.084723,76.570323,229.710970,9801.001370
281.087166,-95.712904,153.140646,9839.286531
281.089608,57.427742,95.712904,9839.286531
281.092050,114.855485,153.140646,9762.716208
281.094492,19.142581,153.140646,9781.858789
281.096935,76.570323,229.710970,9820.143950
281.099377,76.570323,114.855485,9762.716208
281.101819,76.570323,114.855485,9762.716208
281.104262,57.427742,95.712904,9839.286531
281.106704,57.427742,172.283227,9877.571693
281.109146,76.570323,229.710970,9820.143950
281.111588,57.427742,229.710970,9896.714274
281.114031,38.285162,153.140646,9973.284597
281.116473,-38.285162,95.712904,9954.142016
281.118915,57.427742,133.998066,9934.999435
281.121357,95.712904,172.283227,9781.858789
281.123800,229.710970,191.425808,9724.431046
281.126242,191.425808,133.998066,9781.858789
281.128684,76.570323,172.283227,9762.716208
281.131127,19.142581,191.425808,9896.714274
281.133569,-57.427742,210.568389,9896.714274
281.136011,76.570323,248.853550,9915.856854
281.138453,76.570323,153.140646,9801.001370
281.140896,95.712904,95.712904,9820.143950
281.143338,153.140646,95.712904,9839.286531
281.145780,57.427742,95.712904,9820.143950
281.148223,38.285162,306.281293,9820.143950
281.150665,76.570323,267.996131,9801.001370
281.153107,38.285162,133.998066,9858.429112
281.155549,19.142581,95.712904,9896.714274
281.157992,114.855485,114.855485,9839.286531
281.160434,76.570323,191.425808,9762.716208
281.162876,133.998066,172.283227,9762.716208
281.165319,95.712904,210.568389,9877.571693
281.167761,76.570323,133.998066,10011.569758
281.170203,-19.142581,191.425808,9858.429112
281.172645,-0.000000,248.853550,9839.286531
281.175088,76.570323,229.710970,9877.571693
281.177530,133.998066,172.283227,9877.571693
281.179972,114.855485,95.712904,9839.286531
281.182392,38.285162,133.998066,9762.716208
281.184811,153.140646,191.425808,9934.999435
281.187230,57.427742,172.283227,9973.284597
281.189649,-0.000000,248.853550,9877.571693
281.192069,76.570323,172.283227,9858.429112
281.194488,76.570323,114.855485,9762.716208
281.196907,-19.142581,153.140646,9858.429112
281.199326,133.998066,153.140646,9762.716208
281.201746,57.427742,229.710970,9801.001370
281.204165,38.285162,267.996131,9820.143950
281.206584,19.142581,191.425808,9877.571693
281.209004,76.570323,172.283227,9762.716208
281.211423,95.712904,95.712904,9896.714274
281.213842,133.998066,114.855485,9858.429112
281.216261,76.570323,57.427742,9896.714274
281.218681,38.285162,191.425808,9915.856854
281.221100,38.285162,210.568389,9915.856854
281.223519,-0.000000,248.853550,9839.286531
281.225938,76.570323,229.710970,9762.716208
281.228358,191.425808,153.140646,9781.858789
281.230777,95.712904,95.712904,9801.001370
281.233196,57.427742,95.712904,9896.714274
281.235615,-0.000000,95.712904,9934.999435
281.238035,76.570323,229.710970,9858.429112
281.240454,57.427742,229.710970,9896.714274
281.242873,76.570323,229.710970,9858.429112
281.245293,76.570323,210.568389,9820.143950
281.247712,57.427742,57.427742,9858.429112
281.250131,19.142581,133.998066,9896.714274
281.252550,76.570323,191.425808,9820.143950
281.254970,19.142581,210.568389,9896.714274
281.257389,114.855485,172.283227,9858.429112
281.259808,76.570323,172.283227,9820.143950
281.262227,38.285162,287.138712,9839.286531
281.264647,76.570323,229.710970,9801.001370
281.267066,19.142581,153.140646,9896.714274
281.269485,57.427742,153.140646,9934.999435
281.271905,19.142581,133.998066,9801.001370
281.274324,57.427742,95.712904,9801.001370
281.276743,-19.142581,153.140646,9820.143950
281.279204,57.427742,95.712904,9762.716208
281.281665,95.712904,287.138712,9801.001370
281.284126,114.855485,172.283227,9858.429112
281.286587,114.855485,172.283227,9839.286531
281.289048,76.570323,76.570323,9915.856854
281.291509,-19.142581,114.855485,9915.856854
281.293970,38.285162,133.998066,9858.429112
281.296431,76.570323,172.283227,9762.716208
281.298892,172.283227,229.710970,9801.001370
281.301353,95.712904,210.568389,9858.429112
281.303814,19.142581,248.853550,9781.858789
281.306275,76.570323,210.568389,9820.143950
281.308736,38.285162,38.285162,9858.429112
281.311197,57.427742,95.712904,9839.286531
281.313658,57.427742,57.427742,9781.858789
281.316119,76.570323,153.140646,9762.716208
281.318580,133.998066,210.568389,9762.716208
281.321041,57.427742,287.138712,9858.429112
281.323502,19.142581,210.568389,9934.999435
281.325963,76.570323,153.140646,9858.429112
281.328424,19.142581,153.140646,9801.001370
281.330886,76.570323,114.855485,9820.143950
281.333347,95.712904,38.285162,9801.001370
281.335808,114.855485,210.568389,9858.429112
281.338269,76.570323,229.710970,9762.716208
281.340730,57.427742,210.568389,9877.571693
281.343191,76.570323,267.996131,9896.714274
281.345652,57.427742,191.425808,9934.999435
281.348113,19.142581,95.712904,9877.571693
281.350574,57.427742,57.427742,9839.286531
281.353035,114.855485,95.712904,9820.143950
281.355496,57.427742,287.138712,9781.858789
281.357957,95.712904,287.138712,9781.858789
281.360418,76.570323,210.568389,9877.571693
281.362879,57.427742,153.140646,9973.284597
281.365340,38.285162,153.140646,9915.856854
281.367801,76.570323,95.712904,9839.286531
281.370262,114.855485,95.712904,9781.858789
281.372723,95.712904,95.712904,9801.001370
281.375184,76.570323,210.568389,9839.286531
281.377677,76.570323,229.710970,9877.571693
281.380171,57.427742,344.566454,9781.858789
281.382664,76.570323,210.568389,9820.143950
281.385157,95.712904,114.855485,9820.143950
281.387651,76.570323,76.570323,9724.431046
281.390144,76.570323,38.285162,9915.856854
281.392638,95.712904,114.855485,9820.143950
281.395131,38.285162,287.138712,9801.001370
281.397624,38.285162,248.853550,9858.429112
281.400118,57.427742,229.710970,9839.286531
281.402611,76.570323,172.283227,9858.429112
281.405104,95.712904,114.855485,9858.429112
281.407598,95.712904,133.998066,9915.856854
281.410091,57.427742,153.140646,9820.143950
281.412585,76.570323,114.855485,9820.143950
281.415078,19.142581,191.425808,9801.001370
281.417571,76.570323,229.710970,9820.143950
281.420065,95.712904,172.283227,9858.429112
281.422558,76.570323,191.425808,9858.429112
281.425052,76.570323,172.283227,9839.286531
281.427545,19.142581,133.998066,9896.714274
281.430038,114.855485,95.712904,9801.001370
281.432532,19.142581,191.425808,9839.286531
281.435025,19.142581,191.425808,9896.714274
281.437519,95.712904,210.568389,9858.429112
281.440012,19.142581,191.425808,9839.286531
281.442505,19.142581,172.283227,9858.429112
281.444999,57.427742,95.712904,9896.714274
281.447492,19.142581,114.855485,9934.999435
281.449985,19.142581,95.712904,9934.999435
281.452479,-0.000000,191.425808,9839.286531
281.454972,38.285162,267.996131,9858.429112
281.457466,19.142581,191.425808,9858.429112
281.459959,76.570323,229.710970,9858.429112
281.462452,114.855485,172.283227,9877.571693
281.464946,76.570323,114.855485,9801.001370
281.467439,57.427742,38.285162,9858.429112
281.469933,153.140646,153.140646,9877.571693
281.472426,76.570323,172.283227,9801.001370
281.474919,76.570323,229.710970,9801.001370
281.477437,76.570323,191.425808,9896.714274
281.479955,76.570323,210.568389,9820.143950
281.482473,76.570323,76.570323,9915.856854
281.484991,57.427742,0.000000,9896.714274
281.487509,57.427742,95.712904,9801.001370
281.490027,57.427742,95.712904,9781.858789
281.492545,76.570323,210.568389,9839.286531
281.495063,57.427742,287.138712,9820.143950
281.497581,57.427742,191.425808,9934.999435
281.500098,114.855485,172.283227,9820.143950
281.502616,95.712904,76.570323,9915.856854
281.505134,76.570323,57.427742,9877.571693
281.507652,-19.142581,38.285162,9820.143950
281.510170,19.142581,191.425808,9781.858789
281.512688,133.998066,229.710970,9762.716208
281.515206,57.427742,287.138712,9801.001370
281.517724,57.427742,287.138712,9839.286531
281.520242,76.570323,210.568389,9820.143950
281.522760,76.570323,172.283227,9858.429112
281.525278,57.427742,38.285162,9801.001370
281.527795,57.427742,95.712904,9781.858789
281.530313,114.855485,114.855485,9839.286531
281.532831,57.427742,248.853550,9877.571693
281.535349,95.712904,229.710970,9877.571693
281.537867,76.570323,210.568389,9820.143950
281.540385,19.142581,133.998066,9839.286531
281.542903,19.142581,133.998066,9896.714274
281.545421,57.427742,95.712904,9839.286531
281.547939,95.712904,57.427742,9820.143950
281.550457,19.142581,210.568389,9801.001370
281.552975,76.570323,172.283227,9877.571693
281.555493,38.285162,267.996131,9820.143950
281.558010,19.142581,248.853550,9839.286531
281.560528,38.285162,172.283227,9915.856854
281.563046,38.285162,114.855485,9915.856854
281.565564,76.570323,153.140646,9801.001370
281.568082,114.855485,114.855485,9820.143950
281.570600,57.427742,191.425808,9934.999435
281.573118,76.570323,210.568389,9820.143950
281.575636,114.855485,287.138712,9858.429112
281.578175,38.285162,191.425808,9896.714274
281.580711,76.570323,114.855485,9877.571693
281.583247,38.285162,76.570323,9858.429112
281.585783,19.142581,95.712904,9934.999435
281.588319,76.570323,172.283227,9801.001370
281.590855,133.998066,172.283227,9820.143950
281.593391,76.570323,287.138712,9762.716208
281.595927,19.142581,191.425808,9839.286531
281.598462,76.570323,210.568389,9839.286531
281.600998,38.285162,76.570323,9877.571693
281.603534,19.142581,95.712904,9858.429112
281.606070,114.855485,95.712904,9801.001370
281.608606,57.427742,172.283227,9934.999435
281.611142,76.570323,191.425808,9762.716208
281.613678,114.855485,210.568389,9877.571693
281.616214,76.570323,153.140646,9877.571693
281.618750,38.285162,229.710970,9896.714274
281.621286,19.142581,248.853550,9781.858789
281.623822,76.570323,114.855485,9820.143950
281.626358,95.712904,95.712904,9896.714274
281.628894,76.570323,76.570323,9915.856854
281.631430,76.570323,229.710970,9762.716208
281.633966,76.570323,210.568389,9858.429112
281.636502,76.570323,210.568389,9839.286531
281.639038,76.570323,114.855485,9877.571693
281.641574,133.998066,114.855485,9858.429112
281.644110,38.285162,76.570323,9801.001370
281.646646,114.855485,95.712904,9896.714274
281.649182,57.427742,95.712904,9858.429112
281.651718,57.427742,191.425808,9877.571693
281.654254,133.998066,229.710970,9820.143950
281.656790,114.855485,248.853550,9934.999435
281.659326,76.570323,95.712904,9877.571693
281.661861,76.570323,114.855485,9820.143950
281.664397,19.142581,133.998066,9839.286531
281.666933,95.712904,95.712904,9858.429112
281.669469,76.570323,172.283227,9839.286531
281.672005,76.570323,172.283227,9762.716208
281.674541,114.855485,267.996131,9781.858789
281.677077,76.570323,229.710970,9839.286531
281.679628,38.285162,210.568389,9915.856854
281.682179,76.570323,133.998066,9877.571693
281.684729,76.570323,153.140646,9820.143950
281.687280,57.427742,95.712904,9839.286531
281.689831,57.427742,114.855485,9781.858789
281.692381,76.570323,210.568389,9858.429112
281.694932,76.570323,191.425808,9858.429112
281.697483,57.427742,191.425808,9934.999435
281.700033,57.427742,172.283227,9934.999435
281.702584,76.570323,210.568389,9877.571693
281.705135,57.427742,114.855485,9801.001370
281.707685,57.427742,114.855485,9781.858789
281.710236,133.998066,114.855485,9858.429112
281.712787,19.142581,210.568389,9858.429112
281.715337,76.570323,210.568389,9801.001370
281.717888,19.142581,267.996131,9801.001370
281.720439,-19.142581,191.425808,9896.714274
281.722990,76.570323,172.283227,9858.429112
281.725540,57.427742,95.712904,9801.001370
281.728091,95.712904,133.998066,9820.143950
281.730642,114.855485,172.283227,9762.716208
281.733192,76.570323,287.138712,9801.001370
281.735743,19.142581,191.425808,9839.286531
281.738294,57.427742,172.283227,9934.999435
281.740844,76.570323,114.855485,9839.286531
281.743395,76.570323,172.283227,9877.571693
281.745946,38.285162,95.712904,9896.714274
281.748496,57.427742,57.427742,9801.001370
281.751047,95.712904,287.138712,9781.858789
281.753598,19.142581,248.853550,9801.001370
281.756148,76.570323,210.568389,9839.286531
281.758699,57.427742,191.425808,9877.571693
281.761250,95.712904,114.855485,9839.286531
281.763800,19.142581,191.425808,9801.001370
281.766351,57.427742,95.712904,9839.286531
281.768902,19.142581,133.998066,9839.286531
281.771452,191.425808,210.568389,9839.286531
281.774003,57.427742,248.853550,9934.999435
281.776554,114.855485,248.853550,9915.856854
281.779105,114.855485,210.568389,9877.571693
281.781666,76.570323,153.140646,9896.714274
281.784227,57.427742,57.427742,9839.286531
281.786788,114.855485,95.712904,9801.001370
281.789350,57.427742,95.712904,9839.286531
281.791911,76.570323,229.710970,9858.429112
281.794472,153.140646,229.710970,9896.714274
281.797033,-19.142581,248.853550,9839.286531
281.799595,19.142581,172.283227,9801.001370
281.802156,133.998066,114.855485,9877.571693
281.804717,57.427742,95.712904,9781.858789
281.807279,133.998066,95.712904,9781.858789
281.809840,95.712904,153.140646,9877.571693
281.812401,19.142581,191.425808,9839.286531
281.814962,76.570323,229.710970,9858.429112
281.817524,57.427742,267.996131,9934.999435
281.820085,76.570323,172.283227,9801.001370
281.822646,114.855485,114.855485,9877.571693
281.825208,19.142581,95.712904,9973.284597
281.827769,57.427742,95.712904,9801.001370
281.830330,76.570323,76.570323,9839.286531
281.832891,19.142581,248.853550,9781.858789
281.835453,19.142581,248.853550,9839.286531
281.838014,76.570323,229.710970,9820.143950
281.840575,153.140646,153.140646,9934.999435
281.843137,38.285162,76.570323,9801.001370
281.845698,57.427742,133.998066,9934.999435
281.848259,133.998066,114.855485,9820.143950
281.850820,38.285162,76.570323,9820.143950
281.853382,76.570323,172.283227,9839.286531
281.855943,114.855485,191.425808,9877.571693
281.858504,19.142581,191.425808,9896.714274
281.861066,114.855485,153.140646,9820.143950
281.863627,57.427742,95.712904,9820.143950
281.866188,38.285162,38.285162,9820.143950
281.868749,-0.000000,76.570323,9858.429112
281.871311,57.427742,153.140646,9934.999435
281.873872,19.142581,191.425808,9801.001370
281.876433,38.285162,287.138712,9896.714274
281.878995,114.855485,229.710970,9762.716208
281.881556,38.285162,153.140646,9801.001370
281.884124,38.285162,38.285162,9839.286531
281.886691,95.712904,95.712904,9896.714274
281.889259,57.427742,38.285162,9858.429112
281.891827,76.570323,153.140646,9820.143950
281.894395,57.427742,172.283227,9781.858789
281.896963,19.142581,306.281293,9934.999435
281.899530,95.712904,287.138712,9877.571693
281.902098,57.427742,191.425808,9934.999435
281.904666,38.285162,76.570323,9858.429112
281.907234,76.570323,95.712904,9934.999435
281.909802,76.570323,114.855485,9801.001370
281.912369,76.570323,210.568389,9762.716208
281.914937,114.855485,210.568389,9858.429112
281.917505,57.427742,287.138712,9839.286531
281.920073,114.855485,210.568389,9858.429112
281.922641,76.570323,114.855485,9820.143950
281.925208,76.570323,76.570323,9915.856854
281.927776,76.570323,57.427742,9915.856854
281.930344,57.427742,76.570323,9820.143950
281.932912,76.570323,172.283227,9858.429112
281.935480,57.427742,306.281293,9801.001370
281.938047,38.285162,267.996131,9877.571693
281.940615,95.712904,191.425808,9877.571693
281.943183,76.570323,114.855485,9801.001370
281.945751,76.570323,114.855485,9820.143950
281.948319,38.285162,38.285162,9858.429112
281.950886,76.570323,114.855485,9762.716208
281.953454,38.285162,267.996131,9839.286531
281.956022,114.855485,229.710970,9839.286531
281.958590,57.427742,287.138712,9781.858789
281.961158,95.712904,191.425808,9858.429112
281.963725,76.570323,210.568389,9762.716208
281.966293,76.570323,114.855485,9762.716208
281.968861,153.140646,95.712904,9839.286531
281.971429,133.998066,114.855485,9839.286531
281.973996,76.570323,153.140646,9762.716208
281.976564,76.570323,229.710970,9839.286531
281.979132,76.570323,210.568389,9839.286531
281.981700,19.142581,191.425808,9877.571693
281.984268,38.285162,76.570323,9877.571693
281.986840,57.427742,38.285162,9877.571693
281.989412,57.427742,95.712904,9801.001370
281.991984,95.712904,95.712904,9839.286531
281.994556,114.855485,172.283227,9801.001370
281.997128,57.427742,287.138712,9858.429112
281.999700,38.285162,229.710970,9858.429112
282.002273,19.142581,248.853550,9896.714274
282.004845,57.427742,95.712904,9781.858789
282.007417,114.855485,153.140646,9762.716208
282.009989,133.998066,76.570323,9801.001370
282.012561,95.712904,114.855485,9858.429112
282.015133,76.570323,229.710970,9858.429112
282.017705,95.712904,287.138712,9820.143950
282.020277,19.142581,267.996131,9896.714274
282.022850,76.570323,210.568389,9877.571693
282.025422,95.712904,114.855485,9858.429112
282.027994,95.712904,95.712904,9801.001370
282.030566,57.427742,95.712904,9801.001370
282.033138,95.712904,133.998066,9743.573627
282.035710,19.142581,210.568389,9839.286531
282.038282,19.142581,248.853550,9858.429112
282.040854,76.570323,229.710970,9877.571693
282.043427,38.285162,153.140646,9915.856854
282.045999,76.570323,114.855485,9858.429112
282.048571,38.285162,76.570323,9839.286531
282.051143,19.142581,133.998066,9801.001370
282.053715,114.855485,172.283227,9858.429112
282.056287,57.427742,229.710970,9820.143950
282.058859,19.142581,191.425808,9839.286531
282.061432,76.570323,153.140646,9839.286531
282.064004,95.712904,229.710970,9820.143950
282.066576,57.427742,57.427742,9839.286531
282.069148,95.712904,133.998066,9877.571693
282.071720,57.427742,95.712904,9839.286531
282.074292,76.570323,172.283227,9762.716208
282.076864,114.855485,210.568389,9858.429112
282.079436,76.570323,229.710970,9839.286531
282.082009,19.142581,210.568389,9858.429112
282.084581,19.142581,133.998066,9839.286531
282.087153,76.570323,172.283227,9801.001370
282.089682,57.427742,95.712904,9896.714274
282.092212,76.570323,153.140646,9820.143950
282.094741,76.570323,191.425808,9820.143950
282.097271,19.142581,191.425808,9839.286531
282.099801,114.855485,229.710970,9820.143950
282.102330,57.427742,248.853550,9934.999435
282.104860,76.570323,153.140646,9820.143950
282.107389,19.142581,133.998066,9801.001370
282.109919,57.427742,95.712904,9858.429112
282.112448,114.855485,95.712904,9839.286531
282.114978,57.427742,114.855485,9858.429112
282.117507,76.570323,287.138712,9877.571693
282.120037,38.285162,306.281293,9801.001370
282.122566,38.285162,267.996131,9839.286531
282.125096,76.570323,114.855485,9820.143950
282.127625,76.570323,76.570323,9915.856854
282.130155,114.855485,114.855485,9877.571693
282.132685,19.142581,133.998066,9896.714274
282.135214,38.285162,248.853550,9877.571693
282.137744,133.998066,287.138712,9801.001370
282.140273,38.285162,210.568389,9915.856854
282.142803,76.570323,133.998066,9954.142016
282.145332,76.570323,172.283227,9877.571693
282.147862,57.427742,95.712904,9839.286531
282.150391,114.855485,95.712904,9839.286531
282.152921,19.142581,153.140646,9896.714274
282.155450,95.712904,172.283227,9839.286531
282.157980,76.570323,229.710970,9762.716208
282.160509,38.285162,267.996131,9801.001370
282.163039,114.855485,210.568389,9839.286531
282.165569,76.570323,210.568389,9839.286531
282.168098,114.855485,95.712904,9858.429112
282.170628,76.570323,114.855485,9839.286531
282.173157,95.712904,172.283227,9858.429112
282.175687,153.140646,248.853550,9877.571693
282.178216,57.427742,325.423874,9801.001370
282.180746,76.570323,267.996131,9915.856854
282.183275,57.427742,133.998066,9954.142016
282.185805,-0.000000,38.285162,9877.571693
282.188334,38.285162,76.570323,9877.571693
282.190832,95.712904,229.710970,9839.286531
282.193329,153.140646,401.994197,9781.858789
282.195827,57.427742,306.281293,9781.858789
282.198324,57.427742,191.425808,9934.999435
282.200821,-19.142581,76.570323,9858.429112
282.203319,76.570323,38.285162,9973.284597
282.205816,76.570323,229.710970,9820.143950
282.208314,57.427742,287.138712,9781.858789
282.210811,95.712904,229.710970,9762.716208
282.213308,19.142581,133.998066,9820.143950
282.215806,114.855485,38.285162,9954.142016
282.218303,95.712904,153.140646,9934.999435
282.220801,76.570323,191.425808,9858.429112
282.223298,38.285162,210.568389,9896.714274
282.225796,133.998066,114.855485,9877.571693
282.228293,76.570323,191.425808,9915.856854
282.230790,133.998066,172.283227,9762.716208
282.233288,191.425808,267.996131,9781.858789
282.235785,76.570323,191.425808,9839.286531
282.238283,19.142581,114.855485,9820.143950
282.240780,57.427742,95.712904,9915.856854
282.243277,76.570323,38.285162,9915.856854
282.245775,114.855485,172.283227,9858.429112
282.248272,133.998066,363.709035,9743.573627
282.250770,19.142581,191.425808,9781.858789
282.253267,19.142581,191.425808,9839.286531
282.255764,-38.285162,76.570323,9858.429112
282.258262,38.285162,19.142581,9877.571693
282.260759,38.285162,76.570323,9877.571693
282.263257,57.427742,210.568389,9801.001370
282.265754,114.855485,229.710970,9820.143950
282.268251,57.427742,287.138712,9801.001370
282.270749,153.140646,248.853550,9934.999435
282.273246,153.140646,133.998066,9877.571693
282.275744,114.855485,95.712904,9896.714274
282.278241,57.427742,153.140646,9877.571693
282.280739,95.712904,95.712904,9896.714274
282.283236,95.712904,114.855485,9839.286531
282.285733,114.855485,191.425808,9820.143950
282.288231,57.427742,344.566454,9781.858789
282.290704,38.285162,306.281293,9781.858789
282.293178,114.855485,153.140646,9877.571693
282.295652,76.570323,76.570323,9915.856854
282.298126,76.570323,76.570323,9915.856854
282.300599,95.712904,95.712904,9896.714274
282.303073,114.855485,210.568389,9820.143950
282.305547,133.998066,325.423874,9724.431046
282.308021,95.712904,267.996131,9915.856854
282.310494,76.570323,248.853550,9896.714274
282.312968,57.427742,153.140646,9877.571693
282.315442,57.427742,133.998066,9934.999435
282.317916,19.142581,133.998066,9858.429112
282.320389,153.140646,95.712904,9820.143950
282.322863,114.855485,172.283227,9858.429112
282.325337,57.427742,267.996131,9858.429112
282.327811,-0.000000,325.423874,9839.286531
282.330284,57.427742,267.996131,9934.999435
282.332758,57.427742,153.140646,9915.856854
282.335232,38.285162,76.570323,9858.429112
282.337705,57.427742,38.285162,9858.429112
282.340179,76.570323,114.855485,9762.716208
282.342653,95.712904,133.998066,9896.714274
282.345127,57.427742,306.281293,9839.286531
282.347600,38.285162,325.423874,9858.429112
282.350074,57.427742,248.853550,9934.999435
282.352548,76.570323,153.140646,9877.571693
282.355022,95.712904,38.285162,9915.856854
282.357495,38.285162,76.570323,9762.716208
282.359969,57.427742,95.712904,9801.001370
282.362443,76.570323,191.425808,9896.714274
282.364917,57.427742,287.138712,9801.001370
282.367390,57.427742,306.281293,9858.429112
282.369864,133.998066,325.423874,9915.856854
282.372338,19.142581,133.998066,9801.001370
282.374811,114.855485,114.855485,9858.429112
282.377285,19.142581,57.427742,9934.999435
282.379759,38.285162,38.285162,9839.286531
282.382233,114.855485,229.710970,9877.571693
282.384706,76.570323,229.710970,9801.001370
282.387180,76.570323,287.138712,9801.001370
282.389679,114.855485,210.568389,9839.286531
282.392178,76.570323,114.855485,9820.143950
282.394677,57.427742,95.712904,9896.714274
282.397176,57.427742,57.427742,9858.429112
282.399675,57.427742,95.712904,9781.858789
282.402174,114.855485,153.140646,9762.716208
282.404673,76.570323,229.710970,9877.571693
282.407172,19.142581,267.996131,9801.001370
282.409671,-19.142581,248.853550,9839.286531
282.412170,-19.142581,153.140646,9839.286531
282.414669,57.427742,95.712904,9839.286531
282.417169,153.140646,0.000000,9858.429112
282.419668,38.285162,76.570323,9801.001370
282.422167,153.140646,248.853550,9877.571693
282.424666,114.855485,191.425808,9858.429112
282.427165,76.570323,287.138712,9877.571693
282.429664,76.570323,248.853550,9858.429112
282.432163,19.142581,133.998066,9839.286531
282.434662,114.855485,19.142581,9896.714274
282.437161,76.570323,57.427742,9896.714274
282.439660,76.570323,172.283227,9762.716208
282.442159,114.855485,229.710970,9820.143950
282.444658,19.142581,306.281293,9877.571693
282.447157,38.285162,267.996131,9839.286531
282.449656,95.712904,172.283227,9954.142016
282.452155,19.142581,0.000000,9934.999435
282.454654,38.285162,76.570323,9820.143950
282.457153,153.140646,95.712904,9781.858789
282.459652,133.998066,114.855485,9877.571693
282.462151,95.712904,287.138712,9896.714274
282.464650,76.570323,210.568389,9858.429112
282.467149,-0.000000,267.996131,9820.143950
282.469648,38.285162,172.283227,9915.856854
282.472147,76.570323,133.998066,9915.856854
282.474646,76.570323,114.855485,9858.429112
282.477145,57.427742,95.712904,9839.286531
282.479644,57.427742,287.138712,9839.286531
282.482143,-19.142581,267.996131,9762.716208
282.484642,76.570323,267.996131,9896.714274
282.487141,114.855485,248.853550,9973.284597
282.489660,19.142581,133.998066,9896.714274
282.492180,38.285162,76.570323,9839.286531
282.494699,114.855485,95.712904,9896.714274
282.497218,95.712904,172.283227,9801.001370
282.499737,57.427742,287.138712,9781.858789
282.502256,57.427742,306.281293,9858.429112
282.504775,38.285162,267.996131,9820.143950
282.507294,57.427742,248.853550,9973.284597
282.509813,19.142581,133.998066,9896.714274
282.512332,57.427742,0.000000,9896.714274
282.514851,76.570323,114.855485,9820.143950
282.517370,95.712904,172.283227,9820.143950
282.519889,19.142581,267.996131,9820.143950
282.522408,19.142581,191.425808,9896.714274
282.524927,57.427742,287.138712,9896.714274
282.527447,-19.142581,210.568389,9934.999435
282.529966,76.570323,114.855485,9839.286531
282.532485,76.570323,172.283227,9801.001370
282.535004,19.142581,95.712904,9877.571693
282.537523,114.855485,172.283227,9820.143950
282.540042,114.855485,229.710970,9839.286531
282.542561,38.285162,287.138712,9801.001370
282.545080,76.570323,287.138712,9820.143950
282.547599,133.998066,114.855485,9877.571693
282.550118,57.427742,95.712904,9801.001370
282.552637,114.855485,95.712904,9781.858789
282.555156,95.712904,172.283227,9820.143950
282.557675,57.427742,153.140646,9762.716208
282.560194,114.855485,114.855485,9858.429112
282.562714,57.427742,210.568389,9877.571693
282.565233,95.712904,229.710970,9820.143950
282.567752,19.142581,191.425808,9839.286531
282.570271,76.570323,114.855485,9877.571693
282.572790,76.570323,38.285162,9858.429112
282.575309,38.285162,76.570323,9762.716208
282.577828,19.142581,133.998066,9839.286531
282.580347,114.855485,229.710970,9877.571693
282.582866,57.427742,363.709035,9839.286531
282.585385,95.712904,287.138712,9820.143950
282.587904,76.570323,153.140646,9877.571693
282.590437,95.712904,95.712904,9858.429112
282.592973,114.855485,95.712904,9896.714274
282.595509,57.427742,95.712904,9839.286531
282.598045,76.570323,172.283227,9877.571693
282.600581,95.712904,210.568389,9858.429112
282.603117,76.570323,229.710970,9858.429112
282.605652,-19.142581,248.853550,9820.143950
282.608188,76.570323,210.568389,9820.143950
282.610724,38.285162,210.568389,9896.714274
282.613260,57.427742,95.712904,9896.714274
282.615796,38.285162,57.427742,9858.429112
282.618332,76.570323,114.855485,9820.143950
282.620867,114.855485,229.710970,9820.143950
282.623403,114.855485,229.710970,9896.714274
282.625939,57.427742,306.281293,9858.429112
282.628475,114.855485,229.710970,9820.143950
282.631011,114.855485,38.285162,9896.714274
282.633547,38.285162,38.285162,9839.286531
282.636082,38.285162,38.285162,9858.429112
282.638618,19.142581,153.140646,9839.286531
282.641154,57.427742,153.140646,9934.999435
282.643690,-0.000000,248.853550,9839.286531
282.646226,76.570323,325.423874,9915.856854
282.648761,19.142581,172.283227,9801.001370
282.651297,95.712904,95.712904,9801.001370
282.653833,153.140646,95.712904,9839.286531
282.656369,38.285162,76.570323,9858.429112
282.658905,95.712904,153.140646,9877.571693
282.661441,38.285162,325.423874,9762.716208
282.663976,95.712904,287.138712,9762.716208
282.666512,153.140646,287.138712,9801.001370
282.669048,19.142581,191.425808,9858.429112
282.671584,-0.000000,76.570323,9839.286531
282.674120,57.427742,38.285162,9896.714274
282.676656,76.570323,114.855485,9820.143950
282.679191,19.142581,153.140646,9781.858789
282.681727,76.570323,210.568389,9820.143950
282.684263,76.570323,287.138712,9820.143950
282.686799,57.427742,306.281293,9839.286531
282.689335,76.570323,210.568389,9877.571693
282.691883,-19.142581,76.570323,9858.429112
282.694432,95.712904,95.712904,9858.429112
282.696980,76.570323,114.855485,9839.286531
282.699529,38.285162,76.570323,9858.429112
282.702077,76.570323,229.710970,9820.143950
282.704626,114.855485,306.281293,9801.001370
282.707174,57.427742,306.281293,9839.286531
282.709723,76.570323,153.140646,9801.001370
282.712271,76.570323,76.570323,9915.856854
282.714820,57.427742,95.712904,9839.286531
282.717369,57.427742,57.427742,9801.001370
282.719917,57.427742,172.283227,9877.571693
282.722466,76.570323,210.568389,9801.001370
282.725014,57.427742,306.281293,9801.001370
282.727563,38.285162,267.996131,9858.429112
282.730111,19.142581,210.568389,9896.714274
282.732660,57.427742,95.712904,9801.001370
282.735208,114.855485,114.855485,9858.429112
282.737757,-57.427742,38.285162,9839.286531
282.740305,76.570323,114.855485,9820.143950
282.742854,38.285162,325.423874,9839.286531
282.745402,19.142581,248.853550,9801.001370
282.747951,76.570323,229.710970,9858.429112
282.750499,114.855485,229.710970,9858.429112
282.753048,114.855485,114.855485,9839.286531
282.755596,57.427742,95.712904,9896.714274
282.758145,76.570323,76.570323,9724.431046
282.760693,76.570323,153.140646,9801.001370
282.763242,19.142581,191.425808,9801.001370
282.765790,19.142581,248.853550,9839.286531
282.768339,95.712904,306.281293,9896.714274
282.770888,114.855485,210.568389,9877.571693
282.773436,114.855485,95.712904,9896.714274
282.775985,95.712904,95.712904,9781.858789
282.778533,76.570323,114.855485,9762.716208
282.781082,153.140646,95.712904,9858.429112
282.783630,-19.142581,153.140646,9839.286531
282.786179,76.570323,229.710970,9839.286531
282.788727,57.427742,306.281293,9801.001370
282.791276,114.855485,133.998066,9839.286531
282.793833,19.142581,133.998066,9858.429112
282.796391,38.285162,76.570323,9839.286531
282.798949,38.285162,76.570323,9820.143950
282.801507,76.570323,114.855485,9762.716208
282.804064,-0.000000,248.853550,9896.714274
282.806622,114.855485,287.138712,9896.714274
282.809180,-0.000000,287.138712,9934.999435
282.811737,95.712904,229.710970,9820.143950
282.814295,95.712904,95.712904,9915.856854
282.816853,95.712904,95.712904,9801.001370
282.819410,95.712904,114.855485,9801.001370
282.821968,95.712904,114.855485,9896.714274
282.824526,76.570323,210.568389,9839.286531
282.827084,19.142581,210.568389,9839.286531
282.829641,95.712904,229.710970,9820.143950
282.832199,57.427742,191.425808,9934.999435
282.834757,95.712904,95.712904,9820.143950
282.837314,114.855485,114.855485,9877.571693
282.839872,38.285162,76.570323,9820.143950
282.842430,19.142581,133.998066,9781.858789
282.844988,153.140646,287.138712,9839.286531
282.847545,114.855485,229.710970,9839.286531
282.850103,57.427742,210.568389,9877.571693
282.852661,133.998066,172.283227,9839.286531
282.855218,38.285162,38.285162,9858.429112
282.857776,38.285162,76.570323,9762.716208
282.860334,57.427742,153.140646,9934.999435
282.862892,114.855485,210.568389,9877.571693
282.865449,57.427742,229.710970,9839.286531
282.868007,57.427742,325.423874,9877.571693
282.870565,76.570323,229.710970,9877.571693
282.873122,57.427742,95.712904,9896.714274
282.875680,19.142581,153.140646,9858.429112
282.878238,76.570323,114.855485,9839.286531
282.880796,19.142581,95.712904,9934.999435
282.883353,57.427742,229.710970,9839.286531
282.885911,76.570323,229.710970,9801.001370
282.888469,38.285162,325.423874,9820.143950
282.891026,19.142581,191.425808,9858.429112
282.893584,76.570323,114.855485,9877.571693
282.896149,57.427742,95.712904,9839.286531
282.898713,57.427742,76.570323,9896.714274
282.901278,57.427742,172.283227,9934.999435
282.903843,76.570323,210.568389,9801.001370
282.906407,95.712904,306.281293,9896.714274
282.908972,38.285162,267.996131,9839.286531
282.911537,19.142581,153.140646,9858.429112
282.914101,114.855485,57.427742,9801.001370
282.916666,76.570323,114.855485,9877.571693
282.919231,38.285162,76.570323,9762.716208
282.921795,76.570323,210.568389,9762.716208
282.924360,76.570323,287.138712,9839.286531
282.926925,38.285162,325.423874,9762.716208
282.929489,95.712904,287.138712,9839.286531
282.932054,76.570323,153.140646,9877.571693
282.934619,57.427742,95.712904,9839.286531
282.937184,57.427742,57.427742,9896.714274
282.939748,95.712904,95.712904,9858.429112
282.942313,57.427742,95.712904,9896.714274
282.944878,57.427742,248.853550,9743.573627
282.947442,-0.000000,248.853550,9896.714274
282.950007,76.570323,229.710970,9839.286531
282.952572,38.285162,114.855485,9915.856854
282.955136,19.142581,57.427742,9934.999435
282.957701,95.712904,57.427742,9896.714274
282.960266,57.427742,76.570323,9877.571693
282.962830,191.425808,248.853550,9781.858789
282.965395,57.427742,306.281293,9820.143950
282.967960,19.142581,248.853550,9724.431046
282.970524,76.570323,229.710970,9877.571693
282.973089,76.570323,114.855485,9858.429112
282.975654,76.570323,57.427742,9915.856854
282.978218,153.140646,76.570323,9858.429112
282.980783,114.855485,95.712904,9801.001370
282.983348,95.712904,114.855485,9858.429112
282.985912,-0.000000,248.853550,9858.429112
282.988477,38.285162,344.566454,9839.286531
282.991042,76.570323,172.283227,9858.429112
282.993606,76.570323,114.855485,9877.571693
282.996171,95.712904,95.712904,9896.714274
282.998741,57.427742,95.712904,9858.429112
283.001310,76.570323,114.855485,9877.571693
283.003880,76.570323,210.568389,9762.716208
283.006449,95.712904,306.281293,9781.858789
283.009019,57.427742,210.568389,9915.856854
283.011588,19.142581,172.283227,9839.286531
283.014158,19.142581,133.998066,9820.143950
283.016728,57.427742,57.427742,9781.858789
283.019297,95.712904,95.712904,9858.429112
283.021867,153.140646,95.712904,9896.714274
283.024436,95.712904,229.710970,9762.716208
283.027006,133.998066,229.710970,9762.716208
283.029575,76.570323,229.710970,9934.999435
283.032145,76.570323,153.140646,9839.286531
283.034715,114.855485,114.855485,9858.429112
283.037284,114.855485,38.285162,9896.714274
283.039854,114.855485,95.712904,9820.143950
283.042423,19.142581,191.425808,9896.714274
283.044993,38.285162,325.423874,9820.143950
283.047562,95.712904,287.138712,9801.001370
283.050132,57.427742,325.423874,9801.001370
283.052702,76.570323,210.568389,9858.429112
283.055271,114.855485,95.712904,9801.001370
283.057841,57.427742,95.712904,9762.716208
283.060410,57.427742,95.712904,9801.001370
283.062980,-0.000000,153.140646,9839.286531
283.065549,57.427742,229.710970,9858.429112
283.068119,57.427742,306.281293,9896.714274
283.070689,76.570323,267.996131,9915.856854
283.073258,76.570323,191.425808,9858.429112
283.075828,114.855485,172.283227,9820.143950
283.078397,114.855485,114.855485,9839.286531
283.080967,-0.000000,57.427742,9743.573627
283.083536,133.998066,153.140646,9839.286531
283.086106,114.855485,191.425808,9839.286531
283.088676,19.142581,248.853550,9801.001370
283.091245,95.712904,229.710970,9858.429112
283.093815,133.998066,210.568389,9877.571693
283.096384,76.570323,114.855485,9762.716208
283.098954,153.140646,95.712904,9896.714274
283.101527,95.712904,95.712904,9801.001370
283.104099,76.570323,114.855485,9762.716208
283.106672,114.855485,229.710970,9762.716208
283.109245,76.570323,229.710970,9877.571693
283.111817,57.427742,210.568389,9781.858789
283.114390,-19.142581,133.998066,9896.714274
283.116963,57.427742,95.712904,9839.286531
283.119535,38.285162,76.570323,9858.429112
283.122108,76.570323,114.855485,9820.143950
283.124681,57.427742,133.998066,9877.571693
283.127254,57.427742,229.710970,9801.001370
283.129826,19.142581,267.996131,9896.714274
283.132399,19.142581,229.710970,9934.999435
283.134972,76.570323,210.568389,9858.429112
283.137544,19.142581,172.283227,9896.714274
283.140117,57.427742,95.712904,9781.858789
283.142690,114.855485,95.712904,9781.858789
283.145263,95.712904,172.283227,9877.571693
283.147835,95.712904,191.425808,9858.429112
283.150408,114.855485,229.710970,9839.286531
283.152981,57.427742,191.425808,9934.999435
283.155553,76.570323,153.140646,9858.429112
283.158126,19.142581,210.568389,9839.286531
283.160699,57.427742,95.712904,9839.286531
283.163271,95.712904,133.998066,9858.429112
283.165844,114.855485,95.712904,9896.714274
283.168417,133.998066,172.283227,9877.571693
283.170990,19.142581,248.853550,9858.429112
283.173562,19.142581,267.996131,9858.429112
283.176135,19.142581,114.855485,9934.999435
283.178708,76.570323,114.855485,9877.571693
283.181280,76.570323,114.855485,9858.429112
283.183853,114.855485,172.283227,9858.429112
283.186426,19.142581,153.140646,9839.286531
283.188999,76.570323,172.283227,9858.429112
283.191571,95.712904,229.710970,9877.571693
283.194144,76.570323,210.568389,9801.001370
283.196717,114.855485,95.712904,9781.858789
283.199289,19.142581,133.998066,9839.286531
283.201862,76.570323,114.855485,9858.429112
283.204436,114.855485,57.427742,9820.143950
283.207011,133.998066,172.283227,9801.001370
283.209585,76.570323,172.283227,9820.143950
283.212160,114.855485,306.281293,9801.001370
283.214734,19.142581,191.425808,9801.001370
283.217309,114.855485,153.140646,9934.999435
283.219883,114.855485,114.855485,9858.429112
283.222458,114.855485,57.427742,9896.714274
283.225032,133.998066,114.855485,9801.001370
283.227607,76.570323,210.568389,9820.143950
283.230181,19.142581,248.853550,9896.714274
283.232755,76.570323,229.710970,9934.999435
283.235330,76.570323,210.568389,9877.571693
283.237904,114.855485,172.283227,9839.286531
283.240479,38.285162,76.570323,9839.286531
283.243053,57.427742,95.712904,9781.858789
283.245628,114.855485,95.712904,9896.714274
283.248202,38.285162,133.998066,9858.429112
283.250777,153.140646,344.566454,9781.858789
283.253351,76.570323,229.710970,9858.429112
283.255925,76.570323,229.710970,9877.571693
283.258500,114.855485,210.568389,9858.429112
283.261074,57.427742,95.712904,9896.714274
283.263649,57.427742,95.712904,9858.429112
283.266223,172.283227,95.712904,9781.858789
283.268798,57.427742,95.712904,9858.429112
283.271372,133.998066,287.138712,9877.571693
283.273947,95.712904,287.138712,9801.001370
283.276521,57.427742,210.568389,9934.999435
283.279096,57.427742,133.998066,9934.999435
283.281670,57.427742,57.427742,9896.714274
283.284244,19.142581,95.712904,9934.999435
283.286819,76.570323,210.568389,9839.286531
283.289393,76.570323,229.710970,9820.143950
283.291968,95.712904,229.710970,9858.429112
283.294542,57.427742,306.281293,9781.858789
283.297117,-0.000000,248.853550,9896.714274
283.299691,-0.000000,210.568389,9820.143950
283.302266,57.427742,114.855485,9858.429112
283.304840,114.855485,38.285162,9724.431046
283.307378,57.427742,95.712904,9839.286531
283.309915,76.570323,153.140646,9858.429112
283.312453,57.427742,191.425808,9934.999435
283.314991,153.140646,325.423874,9896.714274
283.317529,-57.427742,229.710970,9877.571693
283.320066,76.570323,172.283227,9820.143950
283.322604,57.427742,133.998066,9934.999435
283.325142,57.427742,95.712904,9839.286531
283.327680,19.142581,133.998066,9801.001370
283.330217,114.855485,172.283227,9762.716208
283.332755,95.712904,287.138712,9839.286531
283.335293,19.142581,191.425808,9801.001370
283.337830,114.855485,210.568389,9839.286531
283.340368,19.142581,191.425808,9896.714274
283.342906,57.427742,172.283227,9896.714274
283.345444,38.285162,38.285162,9820.143950
283.347981,95.712904,114.855485,9820.143950
283.350519,114.855485,191.425808,9820.143950
283.353057,76.570323,267.996131,9896.714274
283.355594,114.855485,210.568389,9877.571693
283.358132,19.142581,267.996131,9896.714274
283.360670,19.142581,153.140646,9915.856854
283.363208,38.285162,76.570323,9820.143950
283.365745,57.427742,95.712904,9801.001370
283.368283,57.427742,95.712904,9839.286531
283.370821,114.855485,172.283227,9820.143950
283.373358,76.570323,191.425808,9839.286531
283.375896,76.570323,210.568389,9877.571693
283.378434,19.142581,153.140646,9839.286531
283.380972,76.570323,114.855485,9877.571693
283.383509,114.855485,95.712904,9820.143950
283.386047,153.140646,57.427742,9839.286531
283.388585,153.140646,95.712904,9858.429112
283.391123,95.712904,153.140646,9743.573627
283.393660,-57.427742,248.853550,9877.571693
283.396198,19.142581,191.425808,9896.714274
283.398736,76.570323,172.283227,9858.429112
283.401273,38.285162,172.283227,9954.142016
283.403811,38.285162,95.712904,9896.714274
283.406349,38.285162,76.570323,9820.143950
283.408896,57.427742,114.855485,9896.714274
283.411443,76.570323,210.568389,9820.143950
283.413990,133.998066,210.568389,9877.571693
283.416537,19.142581,267.996131,9858.429112
283.419084,19.142581,248.853550,9839.286531
283.421631,76.570323,114.855485,9877.571693
283.424178,95.712904,95.712904,9896.714274
283.426725,133.998066,76.570323,9915.856854
283.429272,38.285162,172.283227,9724.431046
283.431819,95.712904,306.281293,9820.143950
283.434366,76.570323,229.710970,9877.571693
283.436913,19.142581,172.283227,9877.571693
283.439460,114.855485,153.140646,9839.286531
283.442007,57.427742,172.283227,9992.427178
283.444554,-19.142581,76.570323,9801.001370
283.447101,76.570323,153.140646,9858.429112
283.449648,114.855485,210.568389,9934.999435
283.452195,95.712904,210.568389,9762.716208
283.454742,133.998066,210.568389,9858.429112
283.457289,95.712904,248.853550,9915.856854
283.459836,38.285162,114.855485,9896.714274
283.462383,19.142581,153.140646,9896.714274
283.464930,76.570323,114.855485,9877.571693
283.467477,76.570323,172.283227,9839.286531
283.470024,95.712904,248.853550,9820.143950
283.472571,57.427742,248.853550,9934.999435
283.475118,19.142581,191.425808,9896.714274
283.477665,57.427742,153.140646,9934.999435
283.480212,57.427742,133.998066,9934.999435
283.482759,76.570323,76.570323,9896.714274
283.485306,76.570323,114.855485,9858.429112
283.487853,95.712904,172.283227,9839.286531
283.490400,95.712904,191.425808,9877.571693
283.492947,114.855485,229.710970,9762.716208
283.495494,76.570323,229.710970,9858.429112
283.498041,57.427742,287.138712,9839.286531
283.500588,38.285162,210.568389,9915.856854
283.503135,57.427742,57.427742,9839.286531
283.505682,76.570323,114.855485,9820.143950
283.508229,76.570323,210.568389,9820.143950
283.510782,114.855485,306.281293,9781.858789
283.513336,76.570323,210.568389,9877.571693
283.515889,76.570323,191.425808,9877.571693
283.518442,57.427742,153.140646,9973.284597
283.520995,114.855485,172.283227,9877.571693
283.523548,76.570323,172.283227,9858.429112
283.526101,38.285162,76.570323,9858.429112
283.528654,114.855485,114.855485,9877.571693
283.531208,114.855485,210.568389,9820.143950
283.533761,133.998066,191.425808,9839.286531
283.536314,38.285162,248.853550,9839.286531
283.538867,19.142581,191.425808,9839.286531
283.541420,19.142581,153.140646,9858.429112
283.543973,76.570323,114.855485,9820.143950
283.546527,38.285162,76.570323,9801.001370
283.549080,38.285162,114.855485,9896.714274
283.551633,57.427742,95.712904,9839.286531
283.554186,133.998066,191.425808,9877.571693
283.556739,76.570323,229.710970,9877.571693
283.559292,38.285162,248.853550,9858.429112
283.561846,19.142581,153.140646,9896.714274
283.564399,76.570323,114.855485,9839.286531
283.566952,114.855485,114.855485,9896.714274
283.569505,19.142581,153.140646,9801.001370
283.572058,76.570323,153.140646,9839.286531
283.574611,57.427742,229.710970,9858.429112
283.577165,-0.000000,191.425808,9896.714274
283.579718,76.570323,210.568389,9820.143950
283.582271,57.427742,133.998066,9934.999435
283.584824,38.285162,57.427742,9877.571693
283.587377,19.142581,114.855485,9858.429112
283.589930,57.427742,95.712904,9801.001370
283.592484,76.570323,210.568389,9801.001370
283.595037,133.998066,229.710970,9820.143950
283.597590,76.570323,248.853550,9915.856854
283.600143,57.427742,95.712904,9896.714274
283.602696,95.712904,95.712904,9896.714274
283.605249,57.427742,95.712904,9781.858789
283.607803,76.570323,114.855485,9801.001370
283.610356,76.570323,172.283227,9801.001370
283.612916,95.712904,191.425808,9781.858789
283.615474,153.140646,306.281293,9820.143950
283.618032,153.140646,248.853550,9934.999435
283.620591,76.570323,229.710970,9801.001370
283.623149,57.427742,95.712904,9839.286531
283.625708,95.712904,95.712904,9801.001370
283.628266,133.998066,38.285162,9915.856854
283.630825,57.427742,229.710970,9820.143950
283.633383,38.285162,267.996131,9762.716208
283.635941,76.570323,229.710970,9801.001370
283.638500,76.570323,210.568389,9858.429112
283.641058,76.570323,172.283227,9877.571693
283.643617,76.570323,114.855485,9877.571693
283.646175,-19.142581,133.998066,9781.858789
283.648734,19.142581,153.140646,9896.714274
283.651292,191.425808,172.283227,9896.714274
283.653850,19.142581,191.425808,9801.001370
283.656409,153.140646,306.281293,9858.429112
283.658967,38.285162,267.996131,9877.571693
283.661526,-0.000000,133.998066,9896.714274
283.664084,38.285162,76.570323,9858.429112
283.666643,57.427742,95.712904,9820.143950
283.669201,95.712904,95.712904,9762.716208
283.671760,76.570323,210.568389,9762.716208
283.674318,76.570323,191.425808,9877.571693
283.676876,19.142581,229.710970,9877.571693
283.679435,114.855485,229.710970,9877.571693
283.681993,114.855485,133.998066,9915.856854
283.684552,114.855485,114.855485,9820.143950
283.687110,172.283227,76.570323,9877.571693
283.689669,57.427742,114.855485,9858.429112
283.692227,95.712904,172.283227,9820.143950
283.694785,76.570323,191.425808,9839.286531
283.697344,76.570323,210.568389,9820.143950
283.699902,114.855485,248.853550,9762.716208
283.702461,57.427742,133.998066,9877.571693
283.705019,19.142581,133.998066,9839.286531
283.707578,76.570323,153.140646,9858.429112
283.710136,38.285162,248.853550,9839.286531
283.712694,76.570323,172.283227,9858.429112
283.715256,114.855485,172.283227,9820.143950
283.717818,76.570323,153.140646,9858.429112
283.720380,76.570323,229.710970,9877.571693
283.722943,38.285162,76.570323,9839.286531
283.725505,38.285162,114.855485,9896.714274
283.728067,153.140646,95.712904,9801.001370
283.730629,76.570323,114.855485,9762.716208
283.733191,133.998066,114.855485,9839.286531
283.735753,38.285162,248.853550,9839.286531
283.738315,76.570323,229.710970,9820.143950
283.740877,76.570323,229.710970,9877.571693
283.743439,76.570323,114.855485,9820.143950
283.746001,57.427742,153.140646,9877.571693
283.748563,133.998066,114.855485,9839.286531
283.751125,19.142581,191.425808,9820.143950
283.753687,76.570323,210.568389,9762.716208
283.756249,19.142581,248.853550,9820.143950
283.758811,76.570323,210.568389,9820.143950
283.761373,38.285162,114.855485,9915.856854
283.763935,114.855485,76.570323,9954.142016
283.766497,76.570323,114.855485,9877.571693
283.769059,95.712904,114.855485,9877.571693
283.771621,57.427742,133.998066,9877.571693
283.774183,114.855485,172.283227,9762.716208
283.776745,114.855485,229.710970,9877.571693
283.779307,57.427742,153.140646,9858.429112
283.781869,76.570323,210.568389,9820.143950
283.784431,38.285162,153.140646,9915.856854
283.786993,19.142581,133.998066,9896.714274
283.789555,76.570323,172.283227,9839.286531
283.792117,95.712904,114.855485,9858.429112
283.794679,95.712904,172.283227,9820.143950
283.797241,57.427742,306.281293,9801.001370
283.799803,76.570323,191.425808,9858.429112
283.802365,76.570323,172.283227,9839.286531
283.804927,76.570323,114.855485,9858.429112
283.807490,76.570323,172.283227,9762.716208
283.810052,76.570323,114.855485,9762.716208
283.812614,76.570323,248.853550,9820.143950
283.815176,153.140646,172.283227,9762.716208
283.817740,95.712904,248.853550,9762.716208
283.820305,76.570323,114.855485,9915.856854
283.822870,-38.285162,172.283227,9801.001370
283.825435,19.142581,114.855485,9934.999435
283.828000,57.427742,172.283227,9934.999435
283.830565,76.570323,172.283227,9820.143950
283.833130,-0.000000,191.425808,9877.571693
283.835695,76.570323,229.710970,9877.571693
283.838260,19.142581,153.140646,9781.858789
283.840824,76.570323,210.568389,9762.716208
283.843389,114.855485,133.998066,9934.999435
283.845954,76.570323,114.855485,9877.571693
283.848519,38.285162,172.283227,9915.856854
283.851084,76.570323,210.568389,9858.429112
283.853649,114.855485,210.568389,9877.571693
283.856214,95.712904,210.568389,9820.143950
283.858779,57.427742,287.138712,9858.429112
283.861343,76.570323,210.568389,9762.716208
283.863908,76.570323,114.855485,9877.571693
283.866473,57.427742,95.712904,9896.714274
283.869038,95.712904,114.855485,9858.429112
283.871603,76.570323,210.568389,9839.286531
283.874168,57.427742,287.138712,9781.858789
283.876733,38.285162,267.996131,9762.716208
283.879298,95.712904,153.140646,9877.571693
283.881863,114.855485,210.568389,9877.571693
283.884427,57.427742,95.712904,9839.286531
283.886992,57.427742,95.712904,9839.286531
283.889557,76.570323,172.283227,9877.571693
283.892122,76.570323,153.140646,9820.143950
283.894687,114.855485,287.138712,9801.001370
283.897252,114.855485,229.710970,9781.858789
283.899817,76.570323,191.425808,9877.571693
283.902382,76.570323,210.568389,9839.286531
283.904946,-19.142581,133.998066,9896.714274
283.907511,76.570323,114.855485,9858.429112
283.910076,57.427742,153.140646,9934.999435
283.912641,76.570323,153.140646,9896.714274
283.915206,57.427742,114.855485,9820.143950
283.917771,95.712904,229.710970,9820.143950
283.920337,76.570323,210.568389,9877.571693
283.922904,19.142581,133.998066,9839.286531
283.925470,19.142581,133.998066,9801.001370
283.928037,76.570323,153.140646,9858.429112
283.930603,-0.000000,133.998066,9781.858789
283.933170,76.570323,172.283227,9877.571693
283.935736,76.570323,210.568389,9839.286531
283.938303,114.855485,287.138712,9877.571693
283.940870,76.570323,210.568389,9858.429112
283.943436,19.142581,153.140646,9839.286531
283.946003,76.570323,191.425808,9858.429112
283.948569,95.712904,153.140646,9820.143950
283.951136,95.712904,133.998066,9934.999435
283.953702,95.712904,153.140646,9934.999435
283.956269,38.285162,114.855485,9801.001370
283.958835,114.855485,306.281293,9801.001370
283.961402,76.570323,172.283227,9820.143950
283.963968,19.142581,210.568389,9839.286531
283.966535,57.427742,172.283227,9934.999435
283.969101,114.855485,172.283227,9820.143950
283.971668,95.712904,95.712904,9801.001370
283.974234,76.570323,114.855485,9801.001370
283.976801,19.142581,133.998066,9801.001370
283.979367,19.142581,210.568389,9896.714274
283.981934,57.427742,191.425808,9934.999435
283.984500,76.570323,172.283227,9762.716208
283.987067,114.855485,248.853550,9877.571693
283.989633,76.570323,210.568389,9820.143950
283.992200,95.712904,172.283227,9839.286531
283.994766,114.855485,114.855485,9858.429112
283.997333,57.427742,153.140646,9934.999435
283.999900,76.570323,191.425808,9762.716208
284.002466,95.712904,114.855485,9877.571693
284.005033,76.570323,191.425808,9820.143950
284.007599,95.712904,114.855485,9820.143950
284.010166,95.712904,114.855485,9877.571693
284.012732,76.570323,114.855485,9877.571693
284.015299,76.570323,248.853550,9781.858789
284.017865,38.285162,133.998066,9858.429112
284.020432,95.712904,229.710970,9781.858789
284.022999,19.142581,133.998066,9839.286531
284.025566,133.998066,210.568389,9839.286531
284.028133,38.285162,172.283227,9915.856854
284.030700,-19.142581,133.998066,9839.286531
284.033267,95.712904,95.712904,9839.286531
284.035833,133.998066,229.710970,9801.001370
284.038400,114.855485,172.283227,9839.286531
284.040967,95.712904,229.710970,9858.429112
284.043534,19.142581,153.140646,9781.858789
284.046101,38.285162,191.425808,9915.856854
284.048668,57.427742,153.140646,9934.999435
284.051235,19.142581,95.712904,9858.429112
284.053802,95.712904,114.855485,9820.143950
284.056369,76.570323,229.710970,9839.286531
284.058936,76.570323,191.425808,9858.429112
284.061503,76.570323,172.283227,9762.716208
284.064070,95.712904,248.853550,9934.999435
284.066637,95.712904,76.570323,9915.856854
284.069204,19.142581,172.283227,9801.001370
284.071771,114.855485,114.855485,9839.286531
284.074338,114.855485,172.283227,9858.429112
284.076905,153.140646,287.138712,9781.858789
284.079472,76.570323,229.710970,9839.286531
284.082039,19.142581,191.425808,9839.286531
284.084606,19.142581,133.998066,9858.429112
284.087173,38.285162,153.140646,9954.142016
284.089740,76.570323,114.855485,9801.001370
284.092307,95.712904,172.283227,9839.286531
284.094874,76.570323,114.855485,9839.286531
284.097441,-0.000000,191.425808,9801.001370
284.100007,19.142581,153.140646,9839.286531
284.102574,95.712904,172.283227,9877.571693
284.105141,76.570323,114.855485,9762.716208
284.107708,114.855485,114.855485,9820.143950
284.110275,76.570323,114.855485,9877.571693
284.112842,57.427742,95.712904,9839.286531
284.115409,38.285162,248.853550,9877.571693
284.117976,95.712904,229.710970,9877.571693
284.120543,38.285162,344.566454,9801.001370
284.123110,76.570323,153.140646,9877.571693
284.125677,114.855485,172.283227,9877.571693
284.128244,-0.000000,76.570323,9877.571693
284.130810,57.427742,57.427742,9858.429112
284.133377,76.570323,210.568389,9877.571693
284.135944,19.142581,153.140646,9801.001370
284.138510,95.712904,287.138712,9858.429112
284.141077,114.855485,191.425808,9973.284597
284.143644,76.570323,114.855485,9839.286531
284.146211,19.142581,133.998066,9896.714274
284.148777,114.855485,114.855485,9801.001370
284.151344,57.427742,95.712904,9781.858789
284.153911,114.855485,114.855485,9858.429112
284.156477,57.427742,267.996131,9820.143950
284.159044,38.285162,229.710970,9781.858789
284.161611,76.570323,210.568389,9858.429112
284.164177,76.570323,76.570323,9973.284597
284.166744,76.570323,172.283227,9839.286531
284.169311,114.855485,76.570323,9896.714274
284.171878,57.427742,95.712904,9839.286531
284.174444,-38.285162,191.425808,9781.858789
284.177011,19.142581,248.853550,9801.001370
284.179578,38.285162,267.996131,9801.001370
284.182144,76.570323,229.710970,9839.286531
284.184711,19.142581,172.283227,9839.286531
284.187278,95.712904,57.427742,9839.286531
284.189845,95.712904,95.712904,9801.001370
284.192411,76.570323,133.998066,9839.286531
284.194978,153.140646,172.283227,9801.001370
284.197545,57.427742,229.710970,9801.001370
284.200111,76.570323,248.853550,9858.429112
284.202678,19.142581,248.853550,9801.001370
284.205245,19.142581,153.140646,9896.714274
284.207812,38.285162,133.998066,9858.429112
284.210378,153.140646,38.285162,9896.714274
284.212945,57.427742,153.140646,9877.571693
284.215512,133.998066,191.425808,9820.143950
284.218078,76.570323,172.283227,9877.571693
284.220645,95.712904,248.853550,9934.999435
284.223212,76.570323,191.425808,9762.716208
284.225779,95.712904,76.570323,9915.856854
284.228346,153.140646,172.283227,9877.571693
284.230912,76.570323,114.855485,9858.429112
284.233479,57.427742,114.855485,9896.714274
284.236046,-0.000000,114.855485,9877.571693
284.238613,76.570323,172.283227,9762.716208
284.241180,95.712904,191.425808,9877.571693
284.243747,76.570323,229.710970,9877.571693
284.246314,95.712904,172.283227,9762.716208
284.248881,76.570323,114.855485,9858.429112
284.251448,76.570323,114.855485,9762.716208
284.254015,19.142581,133.998066,9858.429112
284.256582,76.570323,172.283227,9839.286531
284.259149,114.855485,210.568389,9762.716208
284.261716,19.142581,248.853550,9858.429112
284.264283,95.712904,287.138712,9896.714274
284.266850,114.855485,172.283227,9820.143950
284.269417,114.855485,95.712904,9801.001370
284.271984,95.712904,172.283227,9762.716208
284.274551,57.427742,114.855485,9896.714274
284.277118,76.570323,114.855485,9839.286531
284.279685,57.427742,191.425808,9934.999435
284.282252,57.427742,210.568389,9934.999435
284.284819,95.712904,229.710970,9820.143950
284.287386,133.998066,114.855485,9877.571693
284.289953,95.712904,210.568389,9820.143950
284.292520,76.570323,76.570323,9915.856854
284.295087,95.712904,76.570323,9781.858789
284.297654,57.427742,114.855485,9801.001370
284.300221,76.570323,191.425808,9858.429112
284.302788,114.855485,287.138712,9801.001370
284.305355,76.570323,191.425808,9820.143950
284.307922,76.570323,210.568389,9839.286531
284.310489,95.712904,172.283227,9820.143950
284.313056,76.570323,114.855485,9801.001370
284.315622,114.855485,172.283227,9820.143950
284.318189,133.998066,172.283227,9801.001370
284.320756,76.570323,114.855485,9858.429112
284.323323,76.570323,287.138712,9762.716208
284.325890,76.570323,172.283227,9820.143950
284.328457,76.570323,210.568389,9858.429112
284.331023,95.712904,95.712904,9858.429112
284.333589,76.570323,114.855485,9877.571693
284.336155,76.570323,114.855485,9762.716208
284.338722,19.142581,133.998066,9801.001370
284.341288,38.285162,267.996131,9858.429112
284.343854,76.570323,191.425808,9801.001370
284.346420,-57.427742,267.996131,9762.716208
284.348986,114.855485,114.855485,9839.286531
284.351552,114.855485,114.855485,9877.571693
284.354118,57.427742,57.427742,9801.001370
284.356684,76.570323,114.855485,9820.143950
284.359250,76.570323,172.283227,9858.429112
284.361816,19.142581,248.853550,9801.001370
284.364382,76.570323,153.140646,9896.714274
284.366948,57.427742,153.140646,9954.142016
284.369514,76.570323,210.568389,9934.999435
284.372080,114.855485,114.855485,9858.429112
284.374646,76.570323,210.568389,9858.429112
284.377212,57.427742,153.140646,9877.571693
284.379778,114.855485,210.568389,9839.286531
284.382344,76.570323,133.998066,9915.856854
284.384911,76.570323,210.568389,9858.429112
284.387477,76.570323,172.283227,9820.143950
284.390043,76.570323,172.283227,9877.571693
284.392609,114.855485,172.283227,9839.286531
284.395175,57.427742,76.570323,9877.571693
284.397741,76.570323,114.855485,9820.143950
284.400307,114.855485,287.138712,9801.001370
284.402873,76.570323,191.425808,9877.571693
284.405439,95.712904,172.283227,9877.571693
284.408005,19.142581,191.425808,9801.001370
284.410571,57.427742,133.998066,9934.999435
284.413137,38.285162,76.570323,9858.429112
284.415703,57.427742,114.855485,9877.571693
284.418269,76.570323,172.283227,9820.143950
284.420835,57.427742,191.425808,9858.429112
284.423401,38.285162,229.710970,9781.858789
284.425967,76.570323,229.710970,9820.143950
284.428533,76.570323,210.568389,9877.571693
284.431099,114.855485,153.140646,9934.999435
284.433664,38.285162,114.855485,9820.143950
284.436229,19.142581,95.712904,9877.571693
284.438794,76.570323,172.283227,9858.429112
284.441358,76.570323,229.710970,9858.429112
284.443923,19.142581,153.140646,9896.714274
284.446488,19.142581,191.425808,9858.429112
284.449053,76.570323,172.283227,9858.429112
284.451617,38.285162,76.570323,9858.429112
284.454182,114.855485,114.855485,9820.143950
284.456747,95.712904,95.712904,9801.001370
284.459312,76.570323,229.710970,9801.001370
284.461876,19.142581,248.853550,9801.001370
284.464441,76.570323,287.138712,9858.429112
284.467006,57.427742,210.568389,9858.429112
284.469570,133.998066,114.855485,9858.429112
284.472135,114.855485,114.855485,9858.429112
284.474700,57.427742,57.427742,9896.714274
284.477265,76.570323,114.855485,9877.571693
284.479829,19.142581,191.425808,9839.286531
284.482394,95.712904,229.710970,9839.286531
284.484959,19.142581,210.568389,9839.286531
284.487524,95.712904,95.712904,9839.286531
284.490088,95.712904,114.855485,9820.143950
284.492653,19.142581,95.712904,9934.999435
284.495218,19.142581,153.140646,9781.858789
284.497783,76.570323,114.855485,9839.286531
284.500347,114.855485,114.855485,9801.001370
284.502912,57.427742,191.425808,9877.571693
284.505477,76.570323,229.710970,9820.143950
284.508041,19.142581,287.138712,9896.714274
284.510606,19.142581,133.998066,9820.143950
284.513171,76.570323,153.140646,9877.571693
284.515736,57.427742,95.712904,9801.001370
284.518300,153.140646,114.855485,9896.714274
284.520865,76.570323,172.283227,9877.571693
284.523430,-38.285162,267.996131,9858.429112
284.525995,76.570323,210.568389,9839.286531
284.528559,114.855485,172.283227,9839.286531
284.531124,76.570323,172.283227,9839.286531
284.533689,38.285162,95.712904,9858.429112
284.536253,76.570323,114.855485,9858.429112
284.538816,133.998066,172.283227,9877.571693
284.541380,95.712904,191.425808,9820.143950
284.543943,133.998066,287.138712,9801.001370
284.546507,95.712904,306.281293,9896.714274
284.549070,76.570323,172.283227,9820.143950
284.551633,153.140646,133.998066,9801.001370
284.554197,153.140646,57.427742,9781.858789
284.556760,57.427742,95.712904,9896.714274
284.559324,57.427742,114.855485,9896.714274
284.561887,76.570323,172.283227,9858.429112
284.564451,57.427742,133.998066,9934.999435
284.567014,95.712904,248.853550,9934.999435
284.569578,76.570323,267.996131,9801.001370
284.572141,95.712904,133.998066,9762.716208
284.574705,38.285162,76.570323,9801.001370
284.577268,76.570323,76.570323,9839.286531
284.579832,153.140646,76.570323,9839.286531
284.582395,95.712904,114.855485,9820.143950
284.584959,76.570323,172.283227,9877.571693
284.587522,153.140646,287.138712,9801.001370
284.590086,76.570323,172.283227,9858.429112
284.592649,19.142581,153.140646,9896.714274
284.595213,114.855485,114.855485,9839.286531
284.597776,57.427742,95.712904,9839.286531
284.600340,19.142581,172.283227,9877.571693
284.602903,114.855485,172.283227,9820.143950
284.605467,38.285162,133.998066,9877.571693
284.608030,19.142581,153.140646,9801.001370
284.610594,57.427742,248.853550,9934.999435
284.613157,114.855485,172.283227,9801.001370
284.615720,76.570323,114.855485,9801.001370
284.618284,133.998066,114.855485,9820.143950
284.620847,95.712904,95.712904,9896.714274
284.623411,95.712904,229.710970,9839.286531
284.625974,57.427742,287.138712,9858.429112
284.628538,19.142581,248.853550,9820.143950
284.631101,76.570323,191.425808,9839.286531
284.633665,95.712904,76.570323,9781.858789
284.636228,114.855485,76.570323,9915.856854
284.638791,38.285162,114.855485,9896.714274
284.641353,19.142581,153.140646,9801.001370
284.643915,133.998066,153.140646,9839.286531
284.646477,76.570323,210.568389,9858.429112
284.649039,76.570323,172.283227,9820.143950
284.651602,76.570323,210.568389,9820.143950
284.654164,76.570323,114.855485,9877.571693
284.656726,76.570323,114.855485,9858.429112
284.659288,76.570323,210.568389,9839.286531
284.661850,133.998066,210.568389,9896.714274
284.664413,76.570323,210.568389,9858.429112
284.666975,76.570323,210.568389,9801.001370
284.669537,38.285162,191.425808,9839.286531
284.672099,114.855485,114.855485,9839.286531
284.674662,19.142581,133.998066,9839.286531
284.677224,57.427742,114.855485,9839.286531
284.679786,57.427742,95.712904,9896.714274
284.682348,38.285162,210.568389,9915.856854
284.684910,95.712904,114.855485,9896.714274
284.687473,57.427742,95.712904,9801.001370
284.690035,19.142581,191.425808,9801.001370
284.692597,114.855485,153.140646,9839.286531
284.695159,57.427742,95.712904,9896.714274
284.697721,95.712904,153.140646,9877.571693
284.700284,19.142581,153.140646,9781.858789
284.702846,76.570323,172.283227,9762.716208
284.705408,133.998066,210.568389,9858.429112
284.707970,76.570323,210.568389,9820.143950
284.710533,76.570323,172.283227,9820.143950
284.713095,19.142581,133.998066,9896.714274
284.715657,57.427742,172.283227,9934.999435
284.718219,38.285162,76.570323,9858.429112
284.720781,76.570323,172.283227,9839.286531
284.723344,114.855485,114.855485,9877.571693
284.725906,76.570323,172.283227,9801.001370
284.728468,57.427742,229.710970,9781.858789
284.731030,95.712904,267.996131,9934.999435
284.733592,133.998066,153.140646,9839.286531
284.736155,76.570323,38.285162,9896.714274
284.738717,38.285162,76.570323,9858.429112
284.741244,114.855485,114.855485,9858.429112
284.743771,19.142581,210.568389,9801.001370
284.746299,76.570323,210.568389,9858.429112
284.748826,76.570323,210.568389,9877.571693
284.751353,76.570323,210.568389,9820.143950
284.753880,114.855485,114.855485,9820.143950
284.756408,76.570323,153.140646,9820.143950
284.758935,76.570323,172.283227,9839.286531
284.761462,57.427742,153.140646,9877.571693
284.763989,76.570323,153.140646,9762.716208
284.766517,19.142581,210.568389,9858.429112
284.769044,57.427742,191.425808,9877.571693
284.771571,76.570323,229.710970,9762.716208
284.774098,95.712904,172.283227,9877.571693
284.776626,57.427742,95.712904,9839.286531
284.779153,38.285162,76.570323,9839.286531
284.781680,19.142581,153.140646,9839.286531
284.784208,38.285162,229.710970,9915.856854
284.786735,38.285162,248.853550,9877.571693
284.789262,-19.142581,267.996131,9839.286531
284.791789,19.142581,191.425808,9839.286531
284.794317,38.285162,38.285162,9762.716208
284.796844,38.285162,38.285162,9858.429112
284.799371,76.570323,114.855485,9877.571693
284.801898,19.142581,153.140646,9896.714274
284.804426,95.712904,210.568389,9801.001370
284.806953,76.570323,229.710970,9839.286531
284.809480,76.570323,191.425808,9896.714274
284.812007,76.570323,210.568389,9820.143950
284.814535,133.998066,172.283227,9820.143950
284.817062,38.285162,76.570323,9858.429112
284.819589,114.855485,95.712904,9896.714274
284.822116,19.142581,172.283227,9877.571693
284.824644,19.142581,191.425808,9820.143950
284.827171,133.998066,229.710970,9858.429112
284.829698,114.855485,229.710970,9877.571693
284.832225,57.427742,210.568389,9858.429112
284.834753,76.570323,76.570323,9915.856854
284.837280,76.570323,172.283227,9858.429112
284.839807,57.427742,57.427742,9801.001370
284.842341,57.427742,133.998066,9877.571693
284.844874,38.285162,267.996131,9820.143950
284.847408,76.570323,172.283227,9858.429112
284.849941,76.570323,210.568389,9820.143950
284.852475,153.140646,133.998066,9934.999435
284.855008,57.427742,95.712904,9820.143950
284.857542,19.142581,133.998066,9858.429112
284.860075,76.570323,114.855485,9820.143950
284.862609,-57.427742,133.998066,9781.858789
284.865143,76.570323,153.140646,9877.571693
284.867676,133.998066,191.425808,9896.714274
284.870210,76.570323,210.568389,9858.429112
284.872743,95.712904,248.853550,9934.999435
284.875277,76.570323,153.140646,9858.429112
284.877810,19.142581,133.998066,9801.001370
284.880344,95.712904,172.283227,9801.001370
284.882877,76.570323,114.855485,9820.143950
284.885411,57.427742,95.712904,9801.001370
284.887944,114.855485,229.710970,9858.429112
284.890478,76.570323,114.855485,9858.429112
284.893011,19.142581,95.712904,9934.999435
284.895545,76.570323,153.140646,9839.286531
284.898078,76.570323,172.283227,9820.143950
284.900612,76.570323,153.140646,9762.716208
284.903146,153.140646,114.855485,9801.001370
284.905679,19.142581,191.425808,9896.714274
284.908213,-19.142581,248.853550,9858.429112
284.910746,114.855485,248.853550,9934.999435
284.913280,114.855485,229.710970,9877.571693
284.915813,76.570323,172.283227,9762.716208
284.918347,57.427742,114.855485,9801.001370
284.920880,-0.000000,133.998066,9858.429112
284.923414,57.427742,133.998066,9934.999435
284.925947,-0.000000,325.423874,9858.429112
284.928481,19.142581,153.140646,9839.286531
284.931014,19.142581,191.425808,9801.001370
284.933548,76.570323,172.283227,9839.286531
284.936081,57.427742,95.712904,9839.286531
284.938615,133.998066,95.712904,9839.286531
284.941149,19.142581,133.998066,9858.429112
