#time,accel_x,accel_y,accel_z
226.549802,-4709.074877,38.285162,9073.583299
226.552342,-1473.978722,382.851616,9954.142016
226.554882,-3196.810994,153.140646,10336.993632
226.557428,-2928.814862,172.283227,10202.995566
226.559975,-2833.101958,421.136778,8882.157491
226.562522,-1588.834206,401.994197,9590.432981
226.565069,-2488.535504,172.283227,10202.995566
226.567616,-2258.824534,191.425808,9762.716208
226.570163,-746.560651,172.283227,10719.845248
226.572710,-1263.410333,287.138712,10279.565890
226.575257,-1722.832272,114.855485,9552.147819
226.577804,-440.279358,248.853550,9801.001370
226.580351,-842.273555,191.425808,9858.429112
226.582898,-631.705166,133.998066,9896.714274
226.585444,-421.136778,210.568389,9934.999435
226.587991,-172.283227,287.138712,9992.427178
226.590538,-19.142581,229.710970,9896.714274
226.593085,-114.855485,114.855485,9801.001370
226.595632,-172.283227,38.285162,10030.712339
226.598179,-172.283227,57.427742,10145.567824
226.600726,-210.568389,114.855485,10107.282662
226.603273,-76.570323,210.568389,9954.142016
226.605820,57.427742,191.425808,9973.284597
226.608367,76.570323,172.283227,9858.429112
226.610914,172.283227,76.570323,9762.716208
226.613461,325.423874,38.285162,9647.860723
226.616007,363.709035,0.000000,9781.858789
226.618554,325.423874,95.712904,9762.716208
226.621101,363.709035,133.998066,9686.145885
226.623648,344.566454,172.283227,9513.862658
226.626195,555.134843,95.712904,9743.573627
226.628742,459.421939,0.000000,9858.429112
226.631289,440.279358,-19.142581,9877.571693
226.633836,382.851616,114.855485,9571.290400
226.636383,401.994197,172.283227,9571.290400
226.638930,421.136778,153.140646,9762.716208
226.641477,401.994197,114.855485,9820.143950
226.644023,306.281293,153.140646,9801.001370
226.646570,306.281293,153.140646,9781.858789
226.649117,306.281293,133.998066,9839.286531
226.651664,248.853550,172.283227,9896.714274
226.654211,95.712904,248.853550,9877.571693
226.656758,19.142581,191.425808,9896.714274
226.659309,19.142581,114.855485,9934.999435
226.661861,-19.142581,229.710970,10030.712339
226.664412,-95.712904,191.425808,9781.858789
226.666963,-153.140646,248.853550,9762.716208
226.669515,-172.283227,153.140646,9839.286531
226.672066,-267.996131,229.710970,9973.284597
226.674617,-306.281293,248.853550,9896.714274
226.677169,-363.709035,191.425808,9858.429112
226.679720,-325.423874,267.996131,9762.716208
226.682272,-267.996131,229.710970,9954.142016
226.684823,-287.138712,248.853550,10011.569758
226.687374,-267.996131,210.568389,9992.427178
226.689926,-267.996131,191.425808,10030.712339
226.692477,-172.283227,325.423874,10011.569758
226.695028,-229.710970,210.568389,9877.571693
226.697580,-76.570323,287.138712,9915.856854
226.700131,38.285162,229.710970,9973.284597
226.702682,19.142581,153.140646,9896.714274
226.705234,95.712904,325.423874,9896.714274
226.707785,133.998066,210.568389,9858.429112
226.710336,229.710970,248.853550,9877.571693
226.712888,191.425808,153.140646,9801.001370
226.715439,306.281293,153.140646,9781.858789
226.717990,325.423874,172.283227,9858.429112
226.720542,344.566454,133.998066,9877.571693
226.723093,344.566454,153.140646,9743.573627
226.725645,382.851616,133.998066,9686.145885
226.728196,287.138712,114.855485,9667.003304
226.730747,325.423874,114.855485,9762.716208
226.733299,382.851616,172.283227,9628.718142
226.735850,382.851616,95.712904,9705.288466
226.738401,325.423874,172.283227,9590.432981
226.740953,287.138712,76.570323,9762.716208
226.743504,306.281293,153.140646,9801.001370
226.746055,267.996131,76.570323,9877.571693
226.748607,153.140646,114.855485,9915.856854
226.751158,153.140646,191.425808,9858.429112
226.753709,57.427742,95.712904,9801.001370
226.756261,114.855485,114.855485,9896.714274
226.758812,38.285162,133.998066,9839.286531
226.761365,-95.712904,133.998066,9781.858789
226.763919,19.142581,153.140646,9858.429112
226.766472,-57.427742,172.283227,10011.569758
226.769025,-191.425808,153.140646,9954.142016
226.771579,-191.425808,133.998066,9934.999435
226.774132,-153.140646,191.425808,9992.427178
226.776685,-267.996131,210.568389,10088.140082
226.779238,-267.996131,172.283227,9915.856854
226.781792,-248.853550,76.570323,9839.286531
226.784345,-172.283227,172.283227,9820.143950
226.786898,-172.283227,114.855485,9858.429112
226.789452,-133.998066,172.283227,9896.714274
226.792005,-114.855485,114.855485,9762.716208
226.794558,-133.998066,191.425808,9934.999435
226.797111,-95.712904,172.283227,9896.714274
226.799665,-133.998066,133.998066,9954.142016
226.802218,-57.427742,133.998066,9896.714274
226.804771,133.998066,76.570323,9915.856854
226.807325,114.855485,95.712904,9839.286531
226.809878,76.570323,114.855485,9762.716208
226.812431,248.853550,210.568389,9705.288466
226.814984,267.996131,133.998066,9801.001370
226.817538,133.998066,210.568389,9762.716208
226.820091,229.710970,133.998066,9839.286531
226.822644,248.853550,114.855485,9877.571693
226.825198,306.281293,133.998066,9896.714274
226.827751,363.709035,114.855485,9781.858789
226.830304,325.423874,95.712904,9743.573627
226.832858,382.851616,76.570323,9705.288466
226.835411,325.423874,76.570323,9724.431046
226.837964,344.566454,133.998066,9743.573627
226.840517,248.853550,172.283227,9724.431046
226.843071,172.283227,76.570323,9743.573627
226.845624,133.998066,133.998066,9762.716208
226.848177,114.855485,114.855485,9858.429112
226.850731,114.855485,95.712904,9801.001370
226.853284,114.855485,114.855485,9877.571693
226.855837,19.142581,153.140646,9839.286531
226.858390,-0.000000,191.425808,9839.286531
226.860944,-19.142581,210.568389,9915.856854
226.863498,-0.000000,267.996131,9877.571693
226.866051,-38.285162,306.281293,9934.999435
226.868605,-95.712904,172.283227,9858.429112
226.871159,-38.285162,153.140646,9839.286531
226.873713,-76.570323,153.140646,9915.856854
226.876267,-191.425808,229.710970,9896.714274
226.878820,-153.140646,248.853550,9934.999435
226.881374,-172.283227,248.853550,10011.569758
226.883928,-210.568389,267.996131,9915.856854
226.886482,-133.998066,210.568389,9934.999435
226.889036,-153.140646,248.853550,9877.571693
226.891590,-76.570323,191.425808,9839.286531
226.894143,-38.285162,191.425808,9858.429112
226.896697,-95.712904,191.425808,9896.714274
226.899251,-57.427742,210.568389,9915.856854
226.901805,38.285162,325.423874,9820.143950
226.904359,57.427742,229.710970,9839.286531
226.906912,76.570323,210.568389,9858.429112
226.909466,57.427742,306.281293,9801.001370
226.912020,133.998066,172.283227,9858.429112
226.914574,191.425808,114.855485,9820.143950
226.917128,153.140646,114.855485,9801.001370
226.919681,210.568389,133.998066,9820.143950
226.922235,325.423874,153.140646,9877.571693
226.924789,325.423874,210.568389,9801.001370
226.927343,306.281293,153.140646,9820.143950
226.929897,306.281293,172.283227,9820.143950
226.932451,229.710970,133.998066,9762.716208
226.935004,267.996131,153.140646,9801.001370
226.937558,172.283227,133.998066,9820.143950
226.940112,210.568389,133.998066,9858.429112
226.942666,191.425808,172.283227,9820.143950
226.945220,133.998066,114.855485,9801.001370
226.947773,133.998066,133.998066,9781.858789
226.950327,133.998066,210.568389,9877.571693
226.952881,76.570323,114.855485,9858.429112
226.955435,19.142581,133.998066,9839.286531
226.957989,-0.000000,133.998066,9781.858789
226.960543,-19.142581,133.998066,9896.714274
226.963096,-57.427742,133.998066,9896.714274
226.965650,-172.283227,114.855485,9877.571693
226.968203,-76.570323,267.996131,9877.571693
226.970757,-133.998066,114.855485,9915.856854
226.973310,-133.998066,133.998066,9973.284597
226.975864,-229.710970,133.998066,9896.714274
226.978417,-153.140646,191.425808,9934.999435
226.980971,-76.570323,248.853550,9934.999435
226.983524,-172.283227,172.283227,9877.571693
226.986078,-114.855485,153.140646,9915.856854
226.988631,-133.998066,153.140646,9877.571693
226.991185,-76.570323,210.568389,9915.856854
226.993738,-76.570323,172.283227,9915.856854
226.996292,-57.427742,95.712904,9934.999435
226.998845,-0.000000,114.855485,9915.856854
227.001399,19.142581,133.998066,9801.001370
227.003952,76.570323,114.855485,9858.429112
227.006506,95.712904,114.855485,9820.143950
227.009059,133.998066,172.283227,9762.716208
227.011613,114.855485,172.283227,9762.716208
227.014166,114.855485,114.855485,9839.286531
227.016720,172.283227,95.712904,9781.858789
227.019273,133.998066,210.568389,9877.571693
227.021827,306.281293,133.998066,9781.858789
227.024380,267.996131,76.570323,9839.286531
227.026934,229.710970,172.283227,9724.431046
227.029488,229.710970,172.283227,9915.856854
227.032041,267.996131,191.425808,9781.858789
227.034595,172.283227,191.425808,9686.145885
227.037148,210.568389,191.425808,9781.858789
227.039702,267.996131,133.998066,9820.143950
227.042255,133.998066,210.568389,9858.429112
227.044809,172.283227,76.570323,9820.143950
227.047362,191.425808,210.568389,9877.571693
227.049916,153.140646,191.425808,9858.429112
227.052469,57.427742,114.855485,9858.429112
227.055023,19.142581,172.283227,9724.431046
227.057576,76.570323,229.710970,9801.001370
227.060130,19.142581,248.853550,9801.001370
227.062683,76.570323,210.568389,9877.571693
227.065237,-57.427742,248.853550,9801.001370
227.067789,-95.712904,153.140646,9858.429112
227.070342,-0.000000,210.568389,9896.714274
227.072895,-133.998066,229.710970,10011.569758
227.075448,-114.855485,210.568389,9896.714274
227.078000,-133.998066,229.710970,9973.284597
227.080553,-95.712904,191.425808,9896.714274
227.083106,-172.283227,191.425808,9934.999435
227.085659,-76.570323,191.425808,9973.284597
227.088211,-95.712904,248.853550,9839.286531
227.090764,-19.142581,172.283227,9915.856854
227.093317,19.142581,210.568389,9896.714274
227.095870,19.142581,248.853550,9896.714274
227.098422,-0.000000,191.425808,9915.856854
227.100975,38.285162,248.853550,9877.571693
227.103528,57.427742,95.712904,9839.286531
227.106081,133.998066,172.283227,9858.429112
227.108633,76.570323,172.283227,9801.001370
227.111186,114.855485,172.283227,9762.716208
227.113739,153.140646,114.855485,9858.429112
227.116292,133.998066,114.855485,9839.286531
227.118844,191.425808,153.140646,9820.143950
227.121397,191.425808,172.283227,9820.143950
227.123950,267.996131,172.283227,9781.858789
227.126503,210.568389,248.853550,9762.716208
227.129055,229.710970,76.570323,9762.716208
227.131608,248.853550,76.570323,9743.573627
227.134161,210.568389,133.998066,9781.858789
227.136714,153.140646,153.140646,9877.571693
227.139266,191.425808,172.283227,9820.143950
227.141819,172.283227,76.570323,9839.286531
227.144372,191.425808,133.998066,9781.858789
227.146925,76.570323,153.140646,9801.001370
227.149477,114.855485,114.855485,9801.001370
227.152030,133.998066,153.140646,9858.429112
227.154583,19.142581,172.283227,9801.001370
227.157136,19.142581,133.998066,9839.286531
227.159688,76.570323,210.568389,9820.143950
227.162241,19.142581,133.998066,9896.714274
227.164794,-0.000000,172.283227,9877.571693
227.167347,57.427742,153.140646,9934.999435
227.169898,-19.142581,172.283227,9896.714274
227.172449,-95.712904,133.998066,9896.714274
227.175000,-38.285162,133.998066,9839.286531
227.177552,-0.000000,133.998066,9896.714274
227.180103,-114.855485,153.140646,9877.571693
227.182654,-19.142581,172.283227,9915.856854
227.185206,-38.285162,133.998066,9896.714274
227.187757,-133.998066,153.140646,9934.999435
227.190308,-95.712904,191.425808,9820.143950
227.192859,-95.712904,153.140646,9839.286531
227.195411,19.142581,153.140646,9896.714274
227.197962,19.142581,114.855485,9934.999435
227.200513,57.427742,153.140646,9954.142016
227.203065,-19.142581,172.283227,9839.286531
227.205616,76.570323,210.568389,9877.571693
227.208167,191.425808,114.855485,9877.571693
227.210718,95.712904,210.568389,9801.001370
227.213270,172.283227,133.998066,9762.716208
227.215821,210.568389,133.998066,9801.001370
227.218372,114.855485,172.283227,9858.429112
227.220924,191.425808,191.425808,9896.714274
227.223475,229.710970,133.998066,9820.143950
227.226026,267.996131,248.853550,9762.716208
227.228577,172.283227,210.568389,9724.431046
227.231129,191.425808,153.140646,9801.001370
227.233680,191.425808,133.998066,9801.001370
227.236231,95.712904,114.855485,9858.429112
227.238783,133.998066,153.140646,9820.143950
227.241334,133.998066,172.283227,9858.429112
227.243885,76.570323,172.283227,9839.286531
227.246436,133.998066,229.710970,9858.429112
227.248988,76.570323,172.283227,9820.143950
227.251539,95.712904,248.853550,9896.714274
227.254090,57.427742,153.140646,9877.571693
227.256642,38.285162,210.568389,9915.856854
227.259193,19.142581,153.140646,9839.286531
227.261744,19.142581,191.425808,9858.429112
227.264295,19.142581,248.853550,9896.714274
227.266847,-19.142581,287.138712,9896.714274
227.269398,-38.285162,210.568389,9915.856854
227.271970,-57.427742,248.853550,9877.571693
227.274521,-76.570323,210.568389,9915.856854
227.277071,-76.570323,191.425808,9877.571693
227.279621,-38.285162,191.425808,9839.286531
227.282172,-57.427742,191.425808,9973.284597
227.284722,-57.427742,191.425808,9858.429112
227.287273,-57.427742,248.853550,9877.571693
227.289823,-95.712904,248.853550,9896.714274
227.292373,76.570323,210.568389,9877.571693
227.294924,76.570323,229.710970,9820.143950
227.297474,-19.142581,153.140646,9896.714274
227.300025,76.570323,153.140646,9877.571693
227.302575,114.855485,153.140646,9877.571693
227.305125,172.283227,210.568389,9839.286531
227.307676,191.425808,172.283227,9877.571693
227.310226,114.855485,114.855485,9858.429112
227.312777,133.998066,153.140646,9762.716208
227.315327,133.998066,114.855485,9877.571693
227.317877,172.283227,76.570323,9877.571693
227.320428,191.425808,172.283227,9839.286531
227.322978,133.998066,153.140646,9820.143950
227.325529,172.283227,95.712904,9839.286531
227.328079,210.568389,191.425808,9801.001370
227.330629,133.998066,172.283227,9801.001370
227.333180,191.425808,133.998066,9858.429112
227.335730,191.425808,133.998066,9801.001370
227.338281,133.998066,153.140646,9801.001370
227.340831,114.855485,172.283227,9820.143950
227.343382,95.712904,114.855485,9839.286531
227.345932,95.712904,114.855485,9820.143950
227.348482,95.712904,114.855485,9781.858789
227.351033,114.855485,133.998066,9839.286531
227.353583,76.570323,172.283227,9858.429112
227.356134,76.570323,210.568389,9839.286531
227.358684,76.570323,210.568389,9877.571693
227.361234,-0.000000,153.140646,9839.286531
227.363785,38.285162,133.998066,9858.429112
227.366335,-0.000000,133.998066,9877.571693
227.368886,-19.142581,133.998066,9858.429112
227.371436,-76.570323,114.855485,9915.856854
227.373985,-38.285162,133.998066,9801.001370
227.376534,-0.000000,133.998066,9915.856854
227.379083,-0.000000,191.425808,9839.286531
227.381633,38.285162,133.998066,9858.429112
227.384182,19.142581,172.283227,9896.714274
227.386731,38.285162,210.568389,9915.856854
227.389280,-38.285162,76.570323,9877.571693
227.391829,-19.142581,153.140646,9858.429112
227.394378,19.142581,153.140646,9801.001370
227.396927,57.427742,95.712904,9839.286531
227.399476,19.142581,133.998066,9801.001370
227.402026,76.570323,191.425808,9839.286531
227.404575,76.570323,172.283227,9858.429112
227.407124,133.998066,191.425808,9762.716208
227.409673,191.425808,172.283227,9858.429112
227.412222,210.568389,114.855485,9839.286531
227.414771,229.710970,76.570323,9877.571693
227.417320,248.853550,153.140646,9801.001370
227.419870,76.570323,172.283227,9820.143950
227.422419,133.998066,248.853550,9801.001370
227.424968,210.568389,114.855485,9743.573627
227.427517,133.998066,153.140646,9820.143950
227.430066,114.855485,153.140646,9858.429112
227.432615,114.855485,114.855485,9820.143950
227.435164,133.998066,210.568389,9781.858789
227.437714,133.998066,229.710970,9820.143950
227.440263,114.855485,210.568389,9858.429112
227.442812,114.855485,191.425808,9801.001370
227.445361,57.427742,114.855485,9820.143950
227.447910,57.427742,248.853550,9762.716208
227.450459,38.285162,76.570323,9858.429112
227.453008,19.142581,191.425808,9896.714274
227.455558,76.570323,172.283227,9820.143950
227.458107,38.285162,133.998066,9858.429112
227.460656,76.570323,210.568389,9858.429112
227.463205,19.142581,248.853550,9915.856854
227.465754,19.142581,248.853550,9915.856854
227.468303,-38.285162,248.853550,9801.001370
227.470852,-76.570323,210.568389,9896.714274
227.473402,19.142581,133.998066,9801.001370
227.475949,-38.285162,114.855485,9896.714274
227.478496,-95.712904,191.425808,9896.714274
227.481044,-0.000000,210.568389,9915.856854
227.483591,-19.142581,153.140646,9877.571693
227.486138,76.570323,267.996131,9973.284597
227.488686,76.570323,153.140646,9877.571693
227.491233,114.855485,153.140646,9858.429112
227.493780,38.285162,114.855485,9858.429112
227.496328,38.285162,133.998066,9877.571693
227.498875,76.570323,114.855485,9820.143950
227.501422,76.570323,153.140646,9762.716208
227.503970,114.855485,172.283227,9839.286531
227.506517,191.425808,153.140646,9801.001370
227.509064,133.998066,191.425808,9858.429112
227.511612,191.425808,153.140646,9820.143950
227.514159,153.140646,95.712904,9781.858789
227.516706,153.140646,76.570323,9820.143950
227.519254,114.855485,95.712904,9801.001370
227.521801,114.855485,95.712904,9781.858789
227.524348,95.712904,114.855485,9820.143950
227.526896,133.998066,153.140646,9801.001370
227.529443,153.140646,210.568389,9762.716208
227.531990,76.570323,114.855485,9820.143950
227.534538,57.427742,114.855485,9801.001370
227.537085,95.712904,114.855485,9858.429112
227.539632,191.425808,133.998066,9801.001370
227.542180,57.427742,95.712904,9896.714274
227.544727,19.142581,153.140646,9801.001370
227.547274,76.570323,153.140646,9858.429112
227.549822,57.427742,153.140646,9858.429112
227.552369,76.570323,210.568389,9858.429112
227.554917,57.427742,114.855485,9896.714274
227.557464,38.285162,76.570323,9820.143950
227.560011,38.285162,114.855485,9801.001370
227.562559,19.142581,191.425808,9839.286531
227.565106,38.285162,133.998066,9877.571693
227.567653,-0.000000,191.425808,9896.714274
227.570201,-95.712904,153.140646,9801.001370
227.572748,-38.285162,153.140646,9839.286531
227.575295,19.142581,172.283227,9820.143950
227.577786,-38.285162,76.570323,9877.571693
227.580276,-19.142581,76.570323,9877.571693
227.582767,-19.142581,153.140646,9801.001370
227.585257,19.142581,172.283227,9858.429112
227.587748,-19.142581,133.998066,9820.143950
227.590238,76.570323,191.425808,9858.429112
227.592729,57.427742,191.425808,9934.999435
227.595219,76.570323,172.283227,9820.143950
227.597710,95.712904,153.140646,9820.143950
227.600200,76.570323,191.425808,9820.143950
227.602691,95.712904,172.283227,9801.001370
227.605181,191.425808,210.568389,9896.714274
227.607672,76.570323,172.283227,9858.429112
227.610162,133.998066,248.853550,9858.429112
227.612653,76.570323,114.855485,9801.001370
227.615143,191.425808,191.425808,9762.716208
227.617634,133.998066,114.855485,9839.286531
227.620124,114.855485,172.283227,9762.716208
227.622615,76.570323,114.855485,9858.429112
227.625105,114.855485,229.710970,9820.143950
227.627596,95.712904,172.283227,9820.143950
227.630086,76.570323,191.425808,9858.429112
227.632577,133.998066,210.568389,9858.429112
227.635067,19.142581,153.140646,9781.858789
227.637558,95.712904,210.568389,9801.001370
227.640048,19.142581,172.283227,9934.999435
227.642539,19.142581,153.140646,9839.286531
227.645029,76.570323,114.855485,9820.143950
227.647520,76.570323,191.425808,9877.571693
227.650010,19.142581,191.425808,9896.714274
227.652501,38.285162,229.710970,9896.714274
227.654991,76.570323,153.140646,9858.429112
227.657482,-0.000000,153.140646,9781.858789
227.659972,-0.000000,153.140646,9801.001370
227.662463,38.285162,229.710970,9896.714274
227.664953,-38.285162,172.283227,9896.714274
227.667444,19.142581,229.710970,9934.999435
227.669934,-0.000000,191.425808,9839.286531
227.672424,19.142581,248.853550,9801.001370
227.674915,38.285162,229.710970,9896.714274
227.677419,57.427742,133.998066,9877.571693
227.679923,76.570323,153.140646,9762.716208
227.682426,76.570323,191.425808,9839.286531
227.684930,19.142581,172.283227,9896.714274
227.687434,76.570323,210.568389,9877.571693
227.689938,-19.142581,153.140646,9801.001370
227.692442,76.570323,229.710970,9801.001370
227.694945,114.855485,114.855485,9896.714274
227.697449,76.570323,172.283227,9762.716208
227.699953,133.998066,153.140646,9839.286531
227.702457,114.855485,95.712904,9839.286531
227.704961,114.855485,114.855485,9858.429112
227.707464,114.855485,153.140646,9858.429112
227.709968,57.427742,95.712904,9801.001370
227.712472,114.855485,172.283227,9839.286531
227.714976,133.998066,114.855485,9858.429112
227.717479,114.855485,114.855485,9820.143950
227.719983,95.712904,114.855485,9820.143950
227.722487,114.855485,172.283227,9820.143950
227.724991,153.140646,133.998066,9877.571693
227.727495,153.140646,133.998066,9934.999435
227.729998,191.425808,153.140646,9858.429112
227.732502,95.712904,114.855485,9858.429112
227.735006,95.712904,95.712904,9839.286531
227.737510,57.427742,114.855485,9781.858789
227.740014,19.142581,191.425808,9820.143950
227.742517,76.570323,114.855485,9801.001370
227.745021,76.570323,191.425808,9839.286531
227.747525,-19.142581,95.712904,9877.571693
227.750029,19.142581,153.140646,9801.001370
227.752533,76.570323,172.283227,9877.571693
227.755036,38.285162,248.853550,9858.429112
227.757540,19.142581,172.283227,9801.001370
227.760044,57.427742,133.998066,9934.999435
227.762548,-0.000000,133.998066,9839.286531
227.765052,-19.142581,114.855485,9915.856854
227.767555,76.570323,210.568389,9839.286531
227.770059,38.285162,95.712904,9801.001370
227.772563,-19.142581,76.570323,9877.571693
227.775067,19.142581,191.425808,9801.001370
227.777581,19.142581,153.140646,9820.143950
227.780095,-19.142581,114.855485,9839.286531
227.782609,38.285162,153.140646,9915.856854
227.785123,19.142581,133.998066,9801.001370
227.787637,76.570323,229.710970,9762.716208
227.790151,76.570323,114.855485,9858.429112
227.792665,38.285162,172.283227,9781.858789
227.795179,133.998066,172.283227,9762.716208
227.797693,191.425808,172.283227,9858.429112
227.800207,38.285162,210.568389,9781.858789
227.802721,38.285162,229.710970,9915.856854
227.805235,191.425808,153.140646,9896.714274
227.807749,133.998066,172.283227,9820.143950
227.810263,95.712904,172.283227,9801.001370
227.812777,210.568389,133.998066,9896.714274
227.815291,76.570323,114.855485,9858.429112
227.817805,95.712904,114.855485,9762.716208
227.820320,76.570323,210.568389,9820.143950
227.822834,76.570323,229.710970,9839.286531
227.825348,19.142581,191.425808,9896.714274
227.827862,133.998066,153.140646,9858.429112
227.830376,19.142581,191.425808,9781.858789
227.832890,76.570323,191.425808,9839.286531
227.835404,76.570323,172.283227,9801.001370
227.837918,76.570323,114.855485,9858.429112
227.840432,76.570323,210.568389,9877.571693
227.842946,38.285162,191.425808,9934.999435
227.845460,19.142581,248.853550,9896.714274
227.847974,38.285162,210.568389,9915.856854
227.850488,76.570323,191.425808,9839.286531
227.853002,-19.142581,172.283227,9915.856854
227.855516,19.142581,133.998066,9801.001370
227.858030,38.285162,114.855485,9915.856854
227.860544,57.427742,172.283227,9934.999435
227.863058,38.285162,210.568389,9915.856854
227.865572,57.427742,210.568389,9934.999435
227.868086,38.285162,153.140646,9896.714274
227.870600,-0.000000,172.283227,9839.286531
227.873114,114.855485,191.425808,9858.429112
227.875628,19.142581,191.425808,9858.429112
227.878150,19.142581,210.568389,9858.429112
227.880671,57.427742,95.712904,9896.714274
227.883193,38.285162,114.855485,9915.856854
227.885714,19.142581,191.425808,9858.429112
227.888235,19.142581,248.853550,9801.001370
227.890757,76.570323,229.710970,9858.429112
227.893278,95.712904,114.855485,9896.714274
227.895799,133.998066,172.283227,9762.716208
227.898321,133.998066,114.855485,9858.429112
227.900842,76.570323,114.855485,9820.143950
227.903363,133.998066,210.568389,9877.571693
227.905885,76.570323,210.568389,9858.429112
227.908406,114.855485,114.855485,9801.001370
227.910927,95.712904,114.855485,9801.001370
227.913449,114.855485,153.140646,9858.429112
227.915970,133.998066,172.283227,9820.143950
227.918492,57.427742,114.855485,9801.001370
227.921013,95.712904,95.712904,9781.858789
227.923534,76.570323,153.140646,9858.429112
227.926056,95.712904,133.998066,9973.284597
227.928577,76.570323,210.568389,9858.429112
227.931098,76.570323,210.568389,9877.571693
227.933620,57.427742,114.855485,9781.858789
227.936141,76.570323,172.283227,9801.001370
227.938662,76.570323,172.283227,9839.286531
227.941184,76.570323,114.855485,9877.571693
227.943705,57.427742,172.283227,9877.571693
227.946227,19.142581,153.140646,9839.286531
227.948748,76.570323,210.568389,9877.571693
227.951269,19.142581,153.140646,9839.286531
227.953791,19.142581,76.570323,9915.856854
227.956312,76.570323,114.855485,9801.001370
227.958833,-19.142581,133.998066,9839.286531
227.961355,19.142581,133.998066,9801.001370
227.963876,57.427742,95.712904,9801.001370
227.966397,38.285162,153.140646,9915.856854
227.968919,76.570323,114.855485,9877.571693
227.971440,57.427742,191.425808,9934.999435
227.973962,38.285162,133.998066,9839.286531
227.976483,76.570323,172.283227,9858.429112
227.979010,57.427742,114.855485,9896.714274
227.981538,114.855485,114.855485,9820.143950
227.984065,19.142581,191.425808,9801.001370
227.986592,57.427742,191.425808,9858.429112
227.989120,76.570323,229.710970,9801.001370
227.991647,76.570323,172.283227,9820.143950
227.994174,76.570323,172.283227,9858.429112
227.996702,114.855485,153.140646,9820.143950
227.999229,133.998066,172.283227,9877.571693
228.001756,114.855485,114.855485,9801.001370
228.004284,133.998066,114.855485,9820.143950
228.006811,95.712904,153.140646,9820.143950
228.009338,57.427742,76.570323,9820.143950
228.011866,114.855485,210.568389,9858.429112
228.014393,95.712904,153.140646,9858.429112
228.016920,133.998066,210.568389,9820.143950
228.019448,76.570323,210.568389,9858.429112
228.021975,19.142581,114.855485,9858.429112
228.024502,114.855485,172.283227,9858.429112
228.027030,133.998066,114.855485,9877.571693
228.029557,95.712904,229.710970,9896.714274
228.032085,95.712904,172.283227,9877.571693
228.034612,95.712904,191.425808,9820.143950
228.037139,57.427742,114.855485,9801.001370
228.039667,38.285162,95.712904,9820.143950
228.042194,76.570323,172.283227,9858.429112
228.044721,38.285162,172.283227,9896.714274
228.047249,-0.000000,191.425808,9801.001370
228.049776,76.570323,172.283227,9839.286531
228.052303,19.142581,133.998066,9896.714274
228.054831,76.570323,210.568389,9839.286531
228.057358,-38.285162,191.425808,9839.286531
228.059885,76.570323,210.568389,9877.571693
228.062413,38.285162,229.710970,9781.858789
228.064940,76.570323,114.855485,9934.999435
228.067467,76.570323,153.140646,9839.286531
228.069995,76.570323,191.425808,9820.143950
228.072522,153.140646,191.425808,9934.999435
228.075049,57.427742,133.998066,9877.571693
228.077577,95.712904,95.712904,9801.001370
228.080109,95.712904,76.570323,9954.142016
228.082641,76.570323,172.283227,9820.143950
228.085172,57.427742,153.140646,9877.571693
228.087704,114.855485,172.283227,9877.571693
228.090236,114.855485,95.712904,9801.001370
228.092768,76.570323,172.283227,9762.716208
228.095300,57.427742,95.712904,9820.143950
228.097832,19.142581,210.568389,9877.571693
228.100363,76.570323,153.140646,9762.716208
228.102895,57.427742,95.712904,9896.714274
228.105427,76.570323,172.283227,9820.143950
228.107959,114.855485,95.712904,9896.714274
228.110491,114.855485,95.712904,9801.001370
228.113023,114.855485,172.283227,9858.429112
228.115555,133.998066,172.283227,9820.143950
228.118086,95.712904,114.855485,9877.571693
228.120618,95.712904,133.998066,9877.571693
228.123150,57.427742,133.998066,9934.999435
228.125682,76.570323,172.283227,9858.429112
228.128214,114.855485,153.140646,9934.999435
228.130746,19.142581,133.998066,9801.001370
228.133278,38.285162,114.855485,9839.286531
228.135809,57.427742,191.425808,9934.999435
228.138341,38.285162,229.710970,9915.856854
228.140873,76.570323,114.855485,9858.429112
228.143405,-0.000000,248.853550,9896.714274
228.145937,76.570323,172.283227,9762.716208
228.148469,114.855485,172.283227,9801.001370
228.151001,-19.142581,76.570323,9877.571693
228.153532,114.855485,210.568389,9858.429112
228.156064,57.427742,172.283227,9877.571693
228.158596,-19.142581,114.855485,9915.856854
228.161128,76.570323,191.425808,9877.571693
228.163660,76.570323,210.568389,9858.429112
228.166192,19.142581,114.855485,9820.143950
228.168724,76.570323,210.568389,9839.286531
228.171255,95.712904,191.425808,9896.714274
228.173787,153.140646,229.710970,9839.286531
228.176319,38.285162,76.570323,9858.429112
228.178851,57.427742,57.427742,9896.714274
228.181386,76.570323,210.568389,9820.143950
228.183921,95.712904,153.140646,9858.429112
228.186455,57.427742,95.712904,9839.286531
228.188990,76.570323,114.855485,9858.429112
228.191525,76.570323,153.140646,9762.716208
228.194060,19.142581,133.998066,9820.143950
228.196594,114.855485,114.855485,9801.001370
228.199129,57.427742,114.855485,9858.429112
228.201664,76.570323,210.568389,9858.429112
228.204199,114.855485,114.855485,9877.571693
228.206734,19.142581,191.425808,9839.286531
228.209268,76.570323,172.283227,9858.429112
228.211803,76.570323,172.283227,9858.429112
228.214338,76.570323,114.855485,9858.429112
228.216873,114.855485,114.855485,9762.716208
228.219408,114.855485,114.855485,9858.429112
228.221942,19.142581,153.140646,9801.001370
228.224477,76.570323,210.568389,9877.571693
228.227012,57.427742,287.138712,9896.714274
228.229547,76.570323,153.140646,9820.143950
228.232081,57.427742,191.425808,9934.999435
228.234616,76.570323,229.710970,9877.571693
228.237151,76.570323,210.568389,9820.143950
228.239686,57.427742,229.710970,9820.143950
228.242221,57.427742,172.283227,9820.143950
228.244755,76.570323,153.140646,9877.571693
228.247290,19.142581,172.283227,9877.571693
228.249825,19.142581,248.853550,9896.714274
228.252360,38.285162,114.855485,9896.714274
228.254894,76.570323,172.283227,9839.286531
228.257429,76.570323,114.855485,9820.143950
228.259964,76.570323,114.855485,9820.143950
228.262499,114.855485,172.283227,9877.571693
228.265034,76.570323,172.283227,9858.429112
228.267568,19.142581,153.140646,9839.286531
228.270103,95.712904,172.283227,9858.429112
228.272638,19.142581,191.425808,9839.286531
228.275173,76.570323,210.568389,9820.143950
228.277708,76.570323,210.568389,9820.143950
228.280242,38.285162,76.570323,9820.143950
228.282788,76.570323,172.283227,9858.429112
228.285325,76.570323,172.283227,9801.001370
228.287862,95.712904,172.283227,9801.001370
228.290400,76.570323,153.140646,9877.571693
228.292937,76.570323,229.710970,9839.286531
228.295474,133.998066,210.568389,9877.571693
228.298012,57.427742,114.855485,9896.714274
228.300549,153.140646,133.998066,9839.286531
228.303086,76.570323,172.283227,9801.001370
228.305624,95.712904,172.283227,9858.429112
228.308161,76.570323,191.425808,9820.143950
228.310698,114.855485,172.283227,9858.429112
228.313236,114.855485,153.140646,9820.143950
228.315773,114.855485,172.283227,9762.716208
228.318310,114.855485,210.568389,9877.571693
228.320848,76.570323,172.283227,9877.571693
228.323385,76.570323,114.855485,9858.429112
228.325922,57.427742,95.712904,9801.001370
228.328460,19.142581,153.140646,9839.286531
228.330997,19.142581,153.140646,9801.001370
228.333534,-19.142581,191.425808,9839.286531
228.336071,-0.000000,153.140646,9877.571693
228.338609,19.142581,153.140646,9820.143950
228.341146,76.570323,133.998066,9896.714274
228.343683,57.427742,95.712904,9820.143950
228.346221,19.142581,191.425808,9896.714274
228.348758,114.855485,114.855485,9762.716208
228.351295,76.570323,210.568389,9877.571693
228.353833,19.142581,153.140646,9801.001370
228.356370,19.142581,229.710970,9877.571693
228.358907,76.570323,172.283227,9858.429112
228.361445,95.712904,172.283227,9877.571693
228.363982,19.142581,114.855485,9858.429112
228.366519,76.570323,172.283227,9762.716208
228.369057,19.142581,191.425808,9801.001370
228.371594,76.570323,153.140646,9877.571693
228.374131,76.570323,210.568389,9839.286531
228.376669,76.570323,153.140646,9820.143950
228.379206,-38.285162,133.998066,9801.001370
228.381743,57.427742,172.283227,9915.856854
228.384237,76.570323,172.283227,9762.716208
228.386731,57.427742,191.425808,9934.999435
228.389225,76.570323,114.855485,9877.571693
228.391720,95.712904,172.283227,9820.143950
228.394214,57.427742,191.425808,9934.999435
228.396708,114.855485,114.855485,9801.001370
228.399202,153.140646,210.568389,9877.571693
228.401696,95.712904,210.568389,9877.571693
228.404190,57.427742,153.140646,9743.573627
228.406684,95.712904,210.568389,9801.001370
228.409178,19.142581,210.568389,9820.143950
228.411672,76.570323,172.283227,9858.429112
228.414166,76.570323,210.568389,9839.286531
228.416661,19.142581,153.140646,9820.143950
228.419155,76.570323,172.283227,9762.716208
228.421649,76.570323,114.855485,9877.571693
228.424143,19.142581,153.140646,9839.286531
228.426637,19.142581,210.568389,9801.001370
228.429131,19.142581,153.140646,9896.714274
228.431625,-0.000000,133.998066,9896.714274
228.434119,-0.000000,133.998066,9839.286531
228.436613,76.570323,114.855485,9877.571693
228.439107,76.570323,172.283227,9839.286531
228.441601,76.570323,210.568389,9839.286531
228.444096,19.142581,153.140646,9858.429112
228.446590,19.142581,248.853550,9839.286531
228.449084,19.142581,191.425808,9820.143950
228.451578,76.570323,114.855485,9858.429112
228.454072,76.570323,172.283227,9877.571693
228.456566,57.427742,153.140646,9877.571693
228.459060,19.142581,191.425808,9858.429112
228.461554,95.712904,172.283227,9858.429112
228.464048,76.570323,172.283227,9839.286531
228.466542,114.855485,172.283227,9877.571693
228.469036,19.142581,133.998066,9858.429112
228.471531,-38.285162,172.283227,9896.714274
228.474025,76.570323,191.425808,9762.716208
228.476519,57.427742,133.998066,9934.999435
228.479013,76.570323,172.283227,9839.286531
228.481507,114.855485,114.855485,9801.001370
228.484013,19.142581,153.140646,9820.143950
228.486520,19.142581,153.140646,9896.714274
228.489026,19.142581,191.425808,9896.714274
228.491532,19.142581,114.855485,9820.143950
228.494039,133.998066,191.425808,9820.143950
228.496545,76.570323,210.568389,9858.429112
228.499051,76.570323,210.568389,9858.429112
228.501558,133.998066,114.855485,9820.143950
228.504064,76.570323,210.568389,9820.143950
228.506570,19.142581,133.998066,9781.858789
228.509077,114.855485,172.283227,9877.571693
228.511583,76.570323,95.712904,9934.999435
228.514089,57.427742,114.855485,9781.858789
228.516596,95.712904,95.712904,9896.714274
228.519102,19.142581,153.140646,9820.143950
228.521608,76.570323,229.710970,9820.143950
228.524115,95.712904,191.425808,9934.999435
228.526621,19.142581,114.855485,9934.999435
228.529127,76.570323,133.998066,9896.714274
228.531634,57.427742,95.712904,9858.429112
228.534140,57.427742,153.140646,9934.999435
228.536646,57.427742,76.570323,9858.429112
228.539153,95.712904,191.425808,9934.999435
228.541659,76.570323,172.283227,9858.429112
228.544165,76.570323,114.855485,9877.571693
228.546672,57.427742,133.998066,9934.999435
228.549178,76.570323,114.855485,9839.286531
228.551684,76.570323,172.283227,9839.286531
228.554191,38.285162,76.570323,9858.429112
228.556697,19.142581,153.140646,9896.714274
228.559203,76.570323,172.283227,9877.571693
228.561710,76.570323,114.855485,9801.001370
228.564216,76.570323,210.568389,9877.571693
228.566722,76.570323,172.283227,9877.571693
228.569229,57.427742,153.140646,9915.856854
228.571735,38.285162,133.998066,9839.286531
228.574241,76.570323,172.283227,9896.714274
228.576748,76.570323,172.283227,9877.571693
228.579254,57.427742,95.712904,9820.143950
228.581761,76.570323,114.855485,9877.571693
228.584277,114.855485,114.855485,9896.714274
228.586793,76.570323,172.283227,9877.571693
228.589310,19.142581,191.425808,9781.858789
228.591826,95.712904,191.425808,9839.286531
228.594342,19.142581,172.283227,9896.714274
228.596859,76.570323,114.855485,9801.001370
228.599375,76.570323,114.855485,9858.429112
228.601891,76.570323,172.283227,9858.429112
228.604408,38.285162,153.140646,9858.429112
228.606924,57.427742,210.568389,9934.999435
228.609440,76.570323,248.853550,9915.856854
228.611957,-19.142581,191.425808,9858.429112
228.614473,19.142581,248.853550,9839.286531
228.616989,19.142581,191.425808,9801.001370
228.619506,57.427742,191.425808,9934.999435
228.622022,114.855485,210.568389,9858.429112
228.624538,114.855485,172.283227,9877.571693
228.627055,57.427742,153.140646,9934.999435
228.629571,114.855485,133.998066,9915.856854
228.632087,-19.142581,267.996131,9858.429112
228.634604,76.570323,172.283227,9877.571693
228.637120,114.855485,172.283227,9801.001370
228.639636,57.427742,191.425808,9934.999435
228.642153,38.285162,76.570323,9820.143950
228.644669,-0.000000,133.998066,9858.429112
228.647185,-19.142581,172.283227,9896.714274
228.649702,57.427742,172.283227,9934.999435
228.652218,76.570323,153.140646,9858.429112
228.654734,114.855485,114.855485,9877.571693
228.657251,114.855485,172.283227,9934.999435
228.659767,76.570323,172.283227,9839.286531
228.662283,19.142581,153.140646,9858.429112
228.664800,95.712904,95.712904,9839.286531
228.667316,114.855485,191.425808,9762.716208
228.669832,95.712904,172.283227,9877.571693
228.672349,76.570323,172.283227,9801.001370
228.674865,76.570323,229.710970,9820.143950
228.677381,114.855485,229.710970,9877.571693
228.679898,57.427742,153.140646,9877.571693
228.682414,57.427742,95.712904,9858.429112
228.684938,76.570323,210.568389,9839.286531
228.687462,76.570323,114.855485,9877.571693
228.689986,19.142581,153.140646,9839.286531
228.692510,114.855485,95.712904,9839.286531
228.695034,57.427742,133.998066,9858.429112
228.697558,95.712904,172.283227,9820.143950
228.700082,38.285162,267.996131,9801.001370
228.702606,76.570323,153.140646,9839.286531
228.705130,57.427742,133.998066,9877.571693
228.707654,57.427742,153.140646,9877.571693
228.710179,-19.142581,133.998066,9896.714274
228.712703,19.142581,191.425808,9896.714274
228.715227,19.142581,210.568389,9820.143950
228.717751,57.427742,133.998066,9877.571693
228.720275,76.570323,210.568389,9877.571693
228.722799,57.427742,114.855485,9839.286531
228.725323,57.427742,133.998066,9877.571693
228.727847,76.570323,210.568389,9877.571693
228.730371,114.855485,114.855485,9858.429112
228.732895,57.427742,133.998066,9820.143950
228.735419,95.712904,57.427742,9896.714274
228.737943,95.712904,114.855485,9877.571693
228.740467,19.142581,191.425808,9896.714274
228.742991,57.427742,114.855485,9839.286531
228.745515,57.427742,95.712904,9801.001370
228.748039,19.142581,133.998066,9781.858789
228.750563,19.142581,172.283227,9839.286531
228.753087,-0.000000,76.570323,9877.571693
228.755612,19.142581,133.998066,9896.714274
228.758136,76.570323,210.568389,9858.429112
228.760660,38.285162,114.855485,9896.714274
228.763184,76.570323,172.283227,9762.716208
228.765708,19.142581,248.853550,9781.858789
228.768232,57.427742,172.283227,9801.001370
228.770756,76.570323,153.140646,9858.429112
228.773280,76.570323,114.855485,9820.143950
228.775804,19.142581,172.283227,9820.143950
228.778328,114.855485,210.568389,9877.571693
228.780852,114.855485,114.855485,9858.429112
228.783376,95.712904,229.710970,9858.429112
228.785906,19.142581,248.853550,9820.143950
228.788436,76.570323,210.568389,9820.143950
228.790965,76.570323,114.855485,9858.429112
228.793495,19.142581,133.998066,9896.714274
228.796025,57.427742,153.140646,9877.571693
228.798554,57.427742,229.710970,9801.001370
228.801084,76.570323,172.283227,9839.286531
228.803614,38.285162,133.998066,9801.001370
228.806144,76.570323,114.855485,9858.429112
228.808673,38.285162,133.998066,9858.429112
228.811203,95.712904,153.140646,9820.143950
228.813733,19.142581,172.283227,9839.286531
228.816263,38.285162,248.853550,9858.429112
228.818792,76.570323,153.140646,9858.429112
228.821322,76.570323,172.283227,9762.716208
228.823852,133.998066,172.283227,9877.571693
228.826381,38.285162,153.140646,9877.571693
228.828911,19.142581,133.998066,9858.429112
228.831441,76.570323,153.140646,9801.001370
228.833971,38.285162,172.283227,9915.856854
228.836500,38.285162,153.140646,9839.286531
228.839030,19.142581,248.853550,9896.714274
228.841560,57.427742,95.712904,9896.714274
228.844089,76.570323,172.283227,9877.571693
228.846619,57.427742,95.712904,9801.001370
228.849149,114.855485,210.568389,9858.429112
228.851679,19.142581,191.425808,9858.429112
228.854208,57.427742,210.568389,9762.716208
228.856738,76.570323,114.855485,9762.716208
228.859268,114.855485,172.283227,9877.571693
228.861798,57.427742,133.998066,9743.573627
228.864327,76.570323,210.568389,9801.001370
228.866861,95.712904,210.568389,9934.999435
228.869394,76.570323,229.710970,9820.143950
228.871928,114.855485,210.568389,9839.286531
228.874461,57.427742,153.140646,9934.999435
228.876995,114.855485,172.283227,9839.286531
228.879528,76.570323,133.998066,9820.143950
228.882062,76.570323,153.140646,9781.858789
228.884595,19.142581,133.998066,9858.429112
228.887129,76.570323,172.283227,9839.286531
228.889662,76.570323,191.425808,9801.001370
228.892196,76.570323,172.283227,9820.143950
228.894729,76.570323,114.855485,9820.143950
228.897263,76.570323,114.855485,9858.429112
228.899796,76.570323,153.140646,9820.143950
228.902330,57.427742,191.425808,9934.999435
228.904863,38.285162,133.998066,9801.001370
228.907397,19.142581,114.855485,9877.571693
228.909931,-19.142581,153.140646,9839.286531
228.912464,57.427742,114.855485,9781.858789
228.914998,57.427742,95.712904,9858.429112
228.917531,76.570323,76.570323,9896.714274
228.920065,38.285162,76.570323,9877.571693
228.922598,19.142581,191.425808,9839.286531
228.925132,76.570323,210.568389,9762.716208
228.927665,19.142581,153.140646,9839.286531
228.930199,76.570323,172.283227,9839.286531
228.932732,133.998066,172.283227,9858.429112
228.935266,95.712904,172.283227,9762.716208
228.937799,76.570323,229.710970,9839.286531
228.940333,19.142581,153.140646,9839.286531
228.942866,19.142581,172.283227,9896.714274
228.945400,76.570323,133.998066,9801.001370
228.947933,19.142581,210.568389,9896.714274
228.950467,76.570323,210.568389,9877.571693
228.953000,57.427742,287.138712,9839.286531
228.955534,114.855485,210.568389,9820.143950
228.958067,57.427742,95.712904,9839.286531
228.960601,19.142581,153.140646,9896.714274
228.963134,19.142581,133.998066,9896.714274
228.965668,76.570323,114.855485,9858.429112
228.968201,-19.142581,172.283227,9801.001370
228.970735,76.570323,172.283227,9762.716208
228.973268,133.998066,210.568389,9877.571693
228.975802,57.427742,153.140646,9858.429112
228.978335,19.142581,248.853550,9896.714274
228.980869,19.142581,153.140646,9781.858789
228.983403,76.570323,114.855485,9858.429112
228.985936,19.142581,153.140646,9781.858789
228.988433,76.570323,114.855485,9877.571693
228.990930,19.142581,210.568389,9839.286531
228.993427,19.142581,191.425808,9839.286531
228.995923,-19.142581,153.140646,9858.429112
228.998420,76.570323,210.568389,9877.571693
229.000917,95.712904,191.425808,9820.143950
229.003414,76.570323,114.855485,9820.143950
229.005911,19.142581,191.425808,9801.001370
229.008408,114.855485,153.140646,9801.001370
229.010905,76.570323,133.998066,9896.714274
229.013401,114.855485,210.568389,9839.286531
229.015898,95.712904,172.283227,9877.571693
229.018395,38.285162,191.425808,9781.858789
229.020892,76.570323,114.855485,9839.286531
229.023389,-19.142581,153.140646,9781.858789
229.025886,114.855485,172.283227,9896.714274
229.028382,19.142581,191.425808,9896.714274
229.030879,19.142581,153.140646,9858.429112
229.033376,76.570323,172.283227,9762.716208
229.035873,19.142581,153.140646,9839.286531
229.038370,19.142581,153.140646,9781.858789
229.040867,57.427742,191.425808,9934.999435
229.043364,19.142581,133.998066,9781.858789
229.045860,95.712904,210.568389,9877.571693
229.048357,57.427742,95.712904,9896.714274
229.050854,19.142581,133.998066,9781.858789
229.053351,76.570323,210.568389,9877.571693
229.055848,19.142581,133.998066,9820.143950
229.058345,114.855485,114.855485,9877.571693
229.060842,133.998066,153.140646,9820.143950
229.063338,57.427742,191.425808,9877.571693
229.065835,95.712904,95.712904,9858.429112
229.068342,76.570323,172.283227,9820.143950
229.070850,19.142581,191.425808,9839.286531
229.073357,57.427742,95.712904,9896.714274
229.075864,114.855485,210.568389,9858.429112
229.078371,95.712904,114.855485,9896.714274
229.080878,76.570323,172.283227,9858.429112
229.083385,38.285162,76.570323,9839.286531
229.085892,57.427742,172.283227,9724.431046
229.088400,19.142581,191.425808,9801.001370
229.090907,57.427742,133.998066,9858.429112
229.093414,114.855485,153.140646,9934.999435
229.095921,38.285162,114.855485,9896.714274
229.098428,19.142581,172.283227,9896.714274
229.100935,76.570323,114.855485,9858.429112
229.103442,95.712904,210.568389,9820.143950
229.105950,76.570323,153.140646,9839.286531
229.108457,76.570323,210.568389,9858.429112
229.110964,19.142581,191.425808,9839.286531
229.113471,76.570323,114.855485,9858.429112
229.115978,57.427742,95.712904,9820.143950
229.118485,95.712904,153.140646,9877.571693
229.120992,76.570323,172.283227,9820.143950
229.123500,76.570323,172.283227,9839.286531
229.126007,-57.427742,133.998066,9877.571693
229.128514,19.142581,114.855485,9877.571693
229.131021,76.570323,172.283227,9820.143950
229.133528,57.427742,114.855485,9896.714274
229.136035,95.712904,57.427742,9858.429112
229.138542,57.427742,133.998066,9934.999435
229.141050,38.285162,229.710970,9724.431046
229.143557,19.142581,172.283227,9877.571693
229.146064,19.142581,114.855485,9877.571693
229.148571,76.570323,210.568389,9858.429112
229.151078,133.998066,172.283227,9858.429112
229.153585,38.285162,133.998066,9858.429112
229.156092,95.712904,172.283227,9858.429112
229.158600,133.998066,172.283227,9877.571693
229.161107,57.427742,191.425808,9743.573627
229.163614,95.712904,172.283227,9820.143950
229.166121,114.855485,210.568389,9858.429112
229.168638,114.855485,210.568389,9801.001370
229.171156,57.427742,133.998066,9877.571693
229.173673,38.285162,133.998066,9820.143950
229.176191,76.570323,210.568389,9839.286531
229.178708,76.570323,229.710970,9839.286531
229.181226,153.140646,76.570323,9801.001370
229.183743,95.712904,114.855485,9801.001370
229.186261,76.570323,172.283227,9858.429112
229.188778,95.712904,210.568389,9896.714274
229.191296,-0.000000,153.140646,9801.001370
229.193813,76.570323,210.568389,9858.429112
229.196331,38.285162,210.568389,9896.714274
229.198848,133.998066,210.568389,9858.429112
229.201366,76.570323,153.140646,9877.571693
229.203883,95.712904,210.568389,9820.143950
229.206401,38.285162,76.570323,9839.286531
229.208918,114.855485,114.855485,9877.571693
229.211436,76.570323,172.283227,9839.286531
229.213953,76.570323,229.710970,9820.143950
229.216471,76.570323,172.283227,9858.429112
229.218988,76.570323,114.855485,9839.286531
229.221506,76.570323,172.283227,9820.143950
229.224023,19.142581,172.283227,9858.429112
229.226541,76.570323,191.425808,9877.571693
229.229058,76.570323,153.140646,9877.571693
229.231576,19.142581,172.283227,9896.714274
229.234093,19.142581,114.855485,9877.571693
229.236611,19.142581,133.998066,9896.714274
229.239128,57.427742,114.855485,9858.429112
229.241646,19.142581,153.140646,9839.286531
229.244163,-0.000000,153.140646,9801.001370
229.246681,76.570323,172.283227,9877.571693
229.249198,57.427742,172.283227,9858.429112
229.251716,153.140646,76.570323,9877.571693
229.254233,19.142581,248.853550,9896.714274
229.256751,76.570323,114.855485,9820.143950
229.259268,133.998066,172.283227,9858.429112
229.261786,153.140646,57.427742,9820.143950
229.264303,95.712904,153.140646,9839.286531
229.266821,38.285162,248.853550,9858.429112
229.269338,19.142581,191.425808,9858.429112
229.271864,38.285162,172.283227,9915.856854
229.274389,76.570323,172.283227,9801.001370
229.276915,95.712904,172.283227,9839.286531
229.279441,114.855485,114.855485,9801.001370
229.281967,95.712904,210.568389,9762.716208
229.284493,114.855485,191.425808,9877.571693
229.287019,38.285162,76.570323,9877.571693
229.289544,57.427742,114.855485,9896.714274
229.292070,57.427742,95.712904,9896.714274
229.294596,76.570323,114.855485,9820.143950
229.297122,76.570323,172.283227,9820.143950
229.299648,76.570323,210.568389,9820.143950
229.302174,19.142581,133.998066,9801.001370
229.304699,114.855485,114.855485,9839.286531
229.307225,114.855485,172.283227,9839.286531
229.309751,76.570323,172.283227,9801.001370
229.312277,76.570323,210.568389,9858.429112
229.314803,57.427742,133.998066,9934.999435
229.317329,19.142581,172.283227,9801.001370
229.319855,57.427742,114.855485,9820.143950
229.322380,38.285162,76.570323,9820.143950
229.324906,38.285162,133.998066,9858.429112
229.327432,38.285162,114.855485,9915.856854
229.329958,-0.000000,153.140646,9858.429112
229.332484,76.570323,229.710970,9801.001370
229.335010,19.142581,153.140646,9801.001370
229.337535,76.570323,267.996131,9915.856854
229.340061,57.427742,95.712904,9839.286531
229.342587,19.142581,95.712904,9743.573627
229.345113,76.570323,153.140646,9762.716208
229.347639,19.142581,172.283227,9896.714274
229.350165,19.142581,153.140646,9801.001370
229.352690,19.142581,191.425808,9781.858789
229.355216,57.427742,229.710970,9781.858789
229.357742,38.285162,229.710970,9896.714274
229.360268,76.570323,172.283227,9858.429112
229.362794,76.570323,191.425808,9820.143950
229.365320,57.427742,57.427742,9839.286531
229.367845,114.855485,229.710970,9762.716208
229.370378,76.570323,153.140646,9762.716208
229.372910,95.712904,114.855485,9877.571693
229.375442,76.570323,172.283227,9839.286531
229.377974,76.570323,210.568389,9877.571693
229.380507,-0.000000,191.425808,9762.716208
229.383039,19.142581,191.425808,9781.858789
229.385571,76.570323,229.710970,9762.716208
229.388103,76.570323,114.855485,9877.571693
229.390635,57.427742,114.855485,9896.714274
229.393168,76.570323,210.568389,9820.143950
229.395700,76.570323,114.855485,9820.143950
229.398232,95.712904,114.855485,9877.571693
229.400764,19.142581,153.140646,9858.429112
229.403296,76.570323,153.140646,9839.286531
229.405829,19.142581,172.283227,9858.429112
229.408361,57.427742,95.712904,9801.001370
229.410893,57.427742,114.855485,9820.143950
229.413425,19.142581,133.998066,9801.001370
229.415958,19.142581,153.140646,9896.714274
229.418490,-0.000000,191.425808,9934.999435
229.421022,19.142581,248.853550,9858.429112
229.423554,19.142581,153.140646,9781.858789
229.426086,57.427742,114.855485,9839.286531
229.428619,95.712904,133.998066,9934.999435
229.431151,57.427742,95.712904,9839.286531
229.433683,95.712904,210.568389,9877.571693
229.436215,76.570323,172.283227,9801.001370
229.438748,57.427742,153.140646,9743.573627
229.441280,114.855485,210.568389,9858.429112
229.443812,76.570323,172.283227,9820.143950
229.446344,76.570323,153.140646,9820.143950
229.448876,57.427742,95.712904,9801.001370
229.451409,114.855485,76.570323,9915.856854
229.453941,76.570323,114.855485,9877.571693
229.456473,57.427742,95.712904,9896.714274
229.459005,19.142581,133.998066,9820.143950
229.461537,76.570323,229.710970,9801.001370
229.464070,76.570323,210.568389,9858.429112
229.466602,76.570323,153.140646,9820.143950
229.469134,114.855485,114.855485,9820.143950
229.471671,114.855485,114.855485,9839.286531
229.474208,57.427742,95.712904,9801.001370
229.476745,95.712904,153.140646,9820.143950
229.479282,19.142581,153.140646,9801.001370
229.481819,76.570323,172.283227,9762.716208
229.484356,114.855485,172.283227,9858.429112
229.486892,114.855485,172.283227,9858.429112
229.489429,76.570323,153.140646,9762.716208
229.491966,57.427742,95.712904,9839.286531
229.494503,133.998066,114.855485,9877.571693
229.497040,76.570323,114.855485,9839.286531
229.499577,76.570323,153.140646,9877.571693
229.502114,76.570323,172.283227,9839.286531
229.504651,19.142581,191.425808,9896.714274
229.507188,76.570323,229.710970,9858.429112
229.509725,19.142581,114.855485,9858.429112
229.512261,38.285162,76.570323,9877.571693
229.514798,114.855485,172.283227,9877.571693
229.517335,95.712904,95.712904,9839.286531
229.519872,76.570323,172.283227,9858.429112
229.522409,19.142581,153.140646,9839.286531
229.524946,114.855485,210.568389,9877.571693
229.527483,76.570323,210.568389,9858.429112
229.530020,95.712904,210.568389,9858.429112
229.532557,95.712904,229.710970,9839.286531
229.535093,76.570323,172.283227,9858.429112
229.537630,19.142581,153.140646,9896.714274
229.540167,57.427742,191.425808,9934.999435
229.542704,57.427742,114.855485,9839.286531
229.545241,76.570323,172.283227,9877.571693
229.547778,19.142581,153.140646,9781.858789
229.550315,19.142581,191.425808,9781.858789
229.552852,57.427742,191.425808,9877.571693
229.555389,19.142581,172.283227,9801.001370
229.557926,76.570323,172.283227,9762.716208
229.560462,76.570323,114.855485,9877.571693
229.562999,57.427742,153.140646,9934.999435
229.565536,19.142581,191.425808,9781.858789
229.568073,76.570323,210.568389,9820.143950
229.570610,114.855485,114.855485,9877.571693
229.573150,95.712904,114.855485,9896.714274
229.575690,114.855485,210.568389,9858.429112
229.578231,19.142581,191.425808,9839.286531
229.580771,95.712904,229.710970,9801.001370
229.583311,114.855485,95.712904,9839.286531
229.585851,191.425808,133.998066,9896.714274
229.588391,114.855485,210.568389,9877.571693
229.590931,38.285162,229.710970,9896.714274
229.593472,-19.142581,191.425808,9858.429112
229.596012,38.285162,248.853550,9877.571693
229.598552,114.855485,172.283227,9877.571693
229.601092,-19.142581,133.998066,9801.001370
229.603632,57.427742,133.998066,9934.999435
229.606173,76.570323,191.425808,9839.286531
229.608713,76.570323,172.283227,9858.429112
229.611253,76.570323,210.568389,9762.716208
229.613793,19.142581,153.140646,9801.001370
229.616333,-0.000000,133.998066,9896.714274
229.618873,38.285162,133.998066,9858.429112
229.621414,38.285162,76.570323,9820.143950
229.623954,76.570323,114.855485,9858.429112
229.626494,19.142581,191.425808,9839.286531
229.629034,76.570323,210.568389,9858.429112
229.631574,95.712904,114.855485,9762.716208
229.634114,153.140646,153.140646,9858.429112
229.636655,114.855485,172.283227,9820.143950
229.639195,76.570323,229.710970,9820.143950
229.641735,-19.142581,210.568389,9839.286531
229.644275,114.855485,210.568389,9762.716208
229.646815,76.570323,172.283227,9820.143950
229.649356,76.570323,172.283227,9839.286531
229.651896,19.142581,133.998066,9839.286531
229.654436,19.142581,191.425808,9858.429112
229.656976,38.285162,267.996131,9877.571693
229.659516,95.712904,114.855485,9801.001370
229.662056,57.427742,153.140646,9934.999435
229.664597,95.712904,114.855485,9858.429112
229.667137,19.142581,191.425808,9801.001370
229.669677,57.427742,114.855485,9781.858789
229.672217,95.712904,95.712904,9801.001370
229.674760,19.142581,153.140646,9762.716208
229.677303,153.140646,133.998066,9877.571693
229.679846,76.570323,114.855485,9820.143950
229.682390,38.285162,191.425808,9896.714274
229.684933,57.427742,114.855485,9839.286531
229.687476,114.855485,248.853550,9934.999435
229.690019,19.142581,153.140646,9858.429112
229.692562,19.142581,191.425808,9839.286531
229.695105,76.570323,114.855485,9858.429112
229.697648,76.570323,210.568389,9839.286531
229.700191,57.427742,191.425808,9934.999435
229.702734,114.855485,172.283227,9877.571693
229.705277,19.142581,153.140646,9801.001370
229.707821,76.570323,191.425808,9762.716208
229.710364,76.570323,172.283227,9762.716208
229.712907,76.570323,153.140646,9858.429112
229.715450,76.570323,191.425808,9820.143950
229.717993,76.570323,114.855485,9877.571693
229.720536,57.427742,133.998066,9877.571693
229.723079,76.570323,114.855485,9858.429112
229.725622,114.855485,172.283227,9820.143950
229.728165,133.998066,172.283227,9820.143950
229.730708,76.570323,172.283227,9820.143950
229.733251,57.427742,210.568389,9839.286531
229.735795,114.855485,191.425808,9839.286531
229.738338,38.285162,210.568389,9915.856854
229.740881,114.855485,172.283227,9801.001370
229.743424,76.570323,210.568389,9858.429112
229.745967,76.570323,114.855485,9877.571693
229.748510,76.570323,76.570323,9896.714274
229.751053,19.142581,153.140646,9801.001370
229.753596,19.142581,133.998066,9858.429112
229.756139,76.570323,114.855485,9858.429112
229.758682,133.998066,114.855485,9858.429112
229.761226,76.570323,153.140646,9839.286531
229.763769,114.855485,172.283227,9839.286531
229.766312,114.855485,210.568389,9877.571693
229.768855,114.855485,153.140646,9934.999435
229.771398,19.142581,191.425808,9781.858789
229.773941,57.427742,153.140646,9877.571693
229.776486,76.570323,172.283227,9877.571693
229.779031,76.570323,114.855485,9858.429112
229.781576,19.142581,133.998066,9801.001370
229.784121,19.142581,153.140646,9896.714274
229.786666,95.712904,153.140646,9934.999435
229.789211,76.570323,172.283227,9762.716208
229.791755,76.570323,114.855485,9820.143950
229.794300,-0.000000,191.425808,9839.286531
229.796845,-0.000000,153.140646,9801.001370
229.799390,57.427742,95.712904,9801.001370
229.801935,57.427742,172.283227,9839.286531
229.804480,57.427742,191.425808,9743.573627
229.807025,19.142581,153.140646,9781.858789
229.809570,76.570323,114.855485,9801.001370
229.812115,-0.000000,172.283227,9781.858789
229.814660,57.427742,95.712904,9896.714274
229.817205,76.570323,133.998066,9896.714274
229.819750,38.285162,133.998066,9820.143950
229.822294,19.142581,153.140646,9781.858789
229.824839,95.712904,172.283227,9820.143950
229.827384,76.570323,229.710970,9801.001370
229.829929,57.427742,114.855485,9801.001370
229.832474,133.998066,114.855485,9934.999435
229.835019,19.142581,133.998066,9839.286531
229.837564,76.570323,114.855485,9762.716208
229.840109,38.285162,153.140646,9934.999435
229.842654,76.570323,133.998066,9915.856854
229.845199,57.427742,133.998066,9877.571693
229.847744,57.427742,172.283227,9934.999435
229.850289,114.855485,210.568389,9820.143950
229.852833,19.142581,172.283227,9839.286531
229.855378,57.427742,133.998066,9934.999435
229.857923,19.142581,133.998066,9820.143950
229.860468,57.427742,114.855485,9839.286531
229.863013,57.427742,172.283227,9801.001370
229.865558,76.570323,191.425808,9781.858789
229.868103,76.570323,172.283227,9858.429112
229.870648,114.855485,210.568389,9762.716208
229.873193,19.142581,172.283227,9801.001370
229.875738,19.142581,133.998066,9801.001370
229.878284,19.142581,133.998066,9896.714274
229.880830,57.427742,153.140646,9877.571693
229.883376,19.142581,133.998066,9801.001370
229.885922,76.570323,172.283227,9762.716208
229.888468,95.712904,153.140646,9858.429112
229.891014,76.570323,172.283227,9820.143950
229.893560,95.712904,210.568389,9820.143950
229.896106,19.142581,133.998066,9858.429112
229.898653,76.570323,191.425808,9781.858789
229.901199,76.570323,172.283227,9858.429112
229.903745,76.570323,172.283227,9839.286531
229.906291,19.142581,191.425808,9858.429112
229.908837,76.570323,114.855485,9820.143950
229.911383,76.570323,172.283227,9820.143950
229.913929,114.855485,210.568389,9858.429112
229.916475,19.142581,172.283227,9801.001370
229.919021,114.855485,153.140646,9877.571693
229.921567,76.570323,172.283227,9820.143950
229.924113,57.427742,153.140646,9934.999435
229.926659,76.570323,229.710970,9820.143950
229.929206,133.998066,153.140646,9896.714274
229.931752,76.570323,229.710970,9839.286531
229.934298,19.142581,172.283227,9839.286531
229.936844,-57.427742,153.140646,9839.286531
229.939390,-0.000000,172.283227,9858.429112
229.941936,114.855485,210.568389,9762.716208
229.944482,114.855485,210.568389,9820.143950
229.947028,76.570323,114.855485,9801.001370
229.949574,19.142581,191.425808,9839.286531
229.952120,76.570323,172.283227,9877.571693
229.954666,191.425808,153.140646,9896.714274
229.957213,76.570323,172.283227,9877.571693
229.959759,57.427742,153.140646,9762.716208
229.962305,114.855485,172.283227,9839.286531
229.964851,19.142581,191.425808,9839.286531
229.967397,76.570323,172.283227,9820.143950
229.969943,76.570323,114.855485,9858.429112
229.972489,76.570323,172.283227,9858.429112
229.975035,114.855485,172.283227,9858.429112
229.977581,114.855485,210.568389,9762.716208
229.980128,153.140646,172.283227,9896.714274
229.982675,191.425808,114.855485,9877.571693
229.985222,76.570323,210.568389,9820.143950
229.987769,57.427742,229.710970,9781.858789
229.990317,57.427742,95.712904,9820.143950
229.992864,153.140646,95.712904,9858.429112
229.995411,76.570323,114.855485,9801.001370
229.997958,76.570323,172.283227,9820.143950
230.000505,19.142581,191.425808,9781.858789
230.003052,76.570323,172.283227,9877.571693
230.005599,57.427742,153.140646,9877.571693
230.008146,114.855485,95.712904,9858.429112
230.010693,57.427742,114.855485,9839.286531
230.013240,57.427742,133.998066,9934.999435
230.015787,38.285162,191.425808,9896.714274
230.018334,114.855485,172.283227,9820.143950
230.020881,76.570323,76.570323,9934.999435
230.023428,76.570323,114.855485,9877.571693
230.025975,57.427742,229.710970,9896.714274
230.028522,57.427742,95.712904,9896.714274
230.031069,19.142581,153.140646,9839.286531
230.033616,76.570323,114.855485,9839.286531
230.036163,76.570323,153.140646,9877.571693
230.038711,19.142581,153.140646,9801.001370
230.041258,76.570323,172.283227,9858.429112
230.043805,76.570323,114.855485,9839.286531
230.046352,76.570323,172.283227,9801.001370
230.048899,114.855485,210.568389,9801.001370
230.051446,19.142581,153.140646,9820.143950
230.053993,57.427742,95.712904,9896.714274
230.056540,76.570323,210.568389,9858.429112
230.059087,76.570323,172.283227,9877.571693
230.061634,-0.000000,153.140646,9858.429112
230.064181,76.570323,153.140646,9801.001370
230.066728,19.142581,153.140646,9896.714274
230.069275,19.142581,153.140646,9839.286531
230.071822,57.427742,114.855485,9839.286531
230.074369,57.427742,114.855485,9896.714274
230.076916,57.427742,57.427742,9781.858789
230.079463,76.570323,210.568389,9839.286531
230.082011,-19.142581,133.998066,9896.714274
230.084559,76.570323,172.283227,9877.571693
230.087106,76.570323,210.568389,9858.429112
230.089654,19.142581,153.140646,9896.714274
230.092201,76.570323,172.283227,9762.716208
230.094749,76.570323,172.283227,9858.429112
230.097296,95.712904,172.283227,9762.716208
230.099844,76.570323,114.855485,9877.571693
230.102391,76.570323,210.568389,9877.571693
230.104939,76.570323,114.855485,9820.143950
230.107487,76.570323,191.425808,9858.429112
230.110034,-0.000000,133.998066,9896.714274
230.112582,76.570323,210.568389,9820.143950
230.115129,19.142581,153.140646,9801.001370
230.117677,19.142581,210.568389,9877.571693
230.120224,38.285162,114.855485,9896.714274
230.122772,76.570323,114.855485,9877.571693
230.125319,95.712904,153.140646,9877.571693
230.127867,57.427742,114.855485,9896.714274
230.130415,114.855485,191.425808,9820.143950
230.132962,76.570323,210.568389,9858.429112
230.135510,19.142581,153.140646,9801.001370
230.138057,57.427742,191.425808,9877.571693
230.140605,57.427742,114.855485,9820.143950
230.143152,19.142581,133.998066,9781.858789
230.145700,19.142581,133.998066,9839.286531
230.148247,57.427742,95.712904,9896.714274
230.150795,76.570323,172.283227,9877.571693
230.153343,76.570323,172.283227,9820.143950
230.155890,19.142581,153.140646,9839.286531
230.158438,19.142581,172.283227,9839.286531
230.160985,114.855485,114.855485,9839.286531
230.163533,114.855485,114.855485,9820.143950
230.166080,95.712904,229.710970,9801.001370
230.168628,-19.142581,153.140646,9839.286531
230.171175,76.570323,229.710970,9858.429112
230.173723,76.570323,210.568389,9762.716208
230.176271,19.142581,191.425808,9781.858789
230.178818,19.142581,133.998066,9896.714274
230.181366,76.570323,210.568389,9858.429112
230.183913,76.570323,153.140646,9858.429112
230.186461,19.142581,153.140646,9801.001370
230.189009,114.855485,172.283227,9877.571693
230.191556,76.570323,210.568389,9801.001370
230.194104,114.855485,114.855485,9858.429112
230.196651,76.570323,210.568389,9820.143950
230.199199,95.712904,114.855485,9839.286531
230.201747,19.142581,133.998066,9896.714274
230.204294,76.570323,114.855485,9877.571693
230.206842,-19.142581,76.570323,9820.143950
230.209390,76.570323,210.568389,9858.429112
230.211937,38.285162,133.998066,9877.571693
230.214485,114.855485,153.140646,9934.999435
230.217033,76.570323,114.855485,9858.429112
230.219580,95.712904,210.568389,9858.429112
230.222128,76.570323,191.425808,9877.571693
230.224676,57.427742,95.712904,9801.001370
230.227223,19.142581,133.998066,9896.714274
230.229771,57.427742,191.425808,9934.999435
230.232318,57.427742,95.712904,9896.714274
230.234866,19.142581,172.283227,9896.714274
230.237414,76.570323,153.140646,9839.286531
230.239961,19.142581,248.853550,9801.001370
230.242509,114.855485,114.855485,9839.286531
230.245057,153.140646,76.570323,9839.286531
230.247604,76.570323,114.855485,9877.571693
230.250152,76.570323,172.283227,9877.571693
230.252700,19.142581,153.140646,9839.286531
230.255247,19.142581,133.998066,9839.286531
230.257795,57.427742,114.855485,9858.429112
230.260342,133.998066,210.568389,9820.143950
230.262890,114.855485,172.283227,9858.429112
230.265438,38.285162,191.425808,9896.714274
230.267985,38.285162,76.570323,9858.429112
230.270533,114.855485,114.855485,9820.143950
230.273081,76.570323,133.998066,9915.856854
230.275628,76.570323,153.140646,9839.286531
230.278176,76.570323,114.855485,9820.143950
230.280724,76.570323,114.855485,9820.143950
230.283271,57.427742,210.568389,9896.714274
230.285829,114.855485,172.283227,9877.571693
230.288376,95.712904,191.425808,9934.999435
230.290924,76.570323,191.425808,9820.143950
230.293472,38.285162,76.570323,9839.286531
230.296019,57.427742,172.283227,9801.001370
230.298567,76.570323,229.710970,9858.429112
230.301115,76.570323,172.283227,9877.571693
230.303663,114.855485,210.568389,9877.571693
230.306210,114.855485,133.998066,9877.571693
230.308758,57.427742,95.712904,9839.286531
230.311306,95.712904,210.568389,9934.999435
230.313853,76.570323,114.855485,9820.143950
230.316401,76.570323,153.140646,9858.429112
230.318949,114.855485,210.568389,9858.429112
230.321497,19.142581,210.568389,9896.714274
230.324044,38.285162,133.998066,9762.716208
230.326592,133.998066,172.283227,9858.429112
230.329140,76.570323,210.568389,9839.286531
230.331687,19.142581,133.998066,9896.714274
230.334235,57.427742,153.140646,9877.571693
230.336783,76.570323,172.283227,9820.143950
230.339331,76.570323,114.855485,9858.429112
230.341878,76.570323,114.855485,9858.429112
230.344426,76.570323,114.855485,9820.143950
230.346974,-19.142581,153.140646,9896.714274
230.349521,57.427742,114.855485,9839.286531
230.352069,114.855485,133.998066,9934.999435
230.354617,19.142581,210.568389,9820.143950
230.357165,95.712904,172.283227,9801.001370
230.359712,76.570323,210.568389,9877.571693
230.362260,114.855485,210.568389,9858.429112
230.364808,76.570323,114.855485,9839.286531
230.367355,133.998066,172.283227,9801.001370
230.369903,19.142581,172.283227,9858.429112
230.372451,95.712904,172.283227,9877.571693
230.374999,114.855485,114.855485,9801.001370
230.377546,95.712904,210.568389,9858.429112
230.380094,76.570323,191.425808,9762.716208
230.382642,76.570323,172.283227,9839.286531
230.385189,38.285162,133.998066,9820.143950
230.387737,57.427742,114.855485,9896.714274
230.390284,57.427742,153.140646,9934.999435
230.392831,57.427742,191.425808,9858.429112
230.395379,76.570323,172.283227,9858.429112
230.397926,76.570323,172.283227,9858.429112
230.400473,76.570323,114.855485,9858.429112
230.403021,114.855485,76.570323,9839.286531
230.405568,76.570323,172.283227,9858.429112
230.408115,19.142581,153.140646,9858.429112
230.410663,57.427742,133.998066,9934.999435
230.413210,76.570323,153.140646,9858.429112
230.415757,76.570323,172.283227,9858.429112
230.418305,19.142581,153.140646,9896.714274
230.420852,76.570323,172.283227,9839.286531
230.423399,76.570323,172.283227,9839.286531
230.425947,114.855485,114.855485,9820.143950
230.428494,76.570323,229.710970,9858.429112
230.431041,95.712904,114.855485,9858.429112
230.433588,19.142581,172.283227,9858.429112
230.436136,76.570323,229.710970,9877.571693
230.438683,76.570323,114.855485,9877.571693
230.441230,19.142581,153.140646,9896.714274
230.443778,19.142581,172.283227,9839.286531
230.446325,76.570323,133.998066,9839.286531
230.448872,19.142581,153.140646,9896.714274
230.451420,76.570323,210.568389,9858.429112
230.453967,38.285162,229.710970,9915.856854
230.456514,76.570323,114.855485,9858.429112
230.459062,19.142581,133.998066,9896.714274
230.461609,19.142581,172.283227,9801.001370
230.464156,57.427742,133.998066,9877.571693
230.466704,57.427742,153.140646,9877.571693
230.469251,95.712904,210.568389,9877.571693
230.471798,19.142581,191.425808,9801.001370
230.474346,76.570323,210.568389,9858.429112
230.476893,19.142581,133.998066,9858.429112
230.479440,57.427742,191.425808,9934.999435
230.481988,114.855485,114.855485,9877.571693
230.484535,191.425808,153.140646,9801.001370
230.487082,114.855485,172.283227,9877.571693
230.489630,76.570323,133.998066,9896.714274
230.492177,76.570323,153.140646,9877.571693
230.494724,114.855485,210.568389,9762.716208
230.497272,57.427742,191.425808,9896.714274
230.499819,19.142581,153.140646,9839.286531
230.502366,19.142581,153.140646,9781.858789
230.504914,95.712904,114.855485,9820.143950
230.507461,114.855485,114.855485,9839.286531
230.510009,57.427742,229.710970,9896.714274
230.512556,76.570323,172.283227,9877.571693
230.515103,76.570323,210.568389,9801.001370
230.517651,19.142581,172.283227,9858.429112
230.520198,95.712904,191.425808,9877.571693
230.522746,76.570323,114.855485,9877.571693
230.525293,-0.000000,133.998066,9858.429112
230.527840,114.855485,172.283227,9877.571693
230.530388,76.570323,114.855485,9877.571693
230.532935,19.142581,133.998066,9896.714274
230.535482,-38.285162,114.855485,9915.856854
230.538030,19.142581,191.425808,9839.286531
230.540577,76.570323,210.568389,9839.286531
230.543125,95.712904,133.998066,9858.429112
230.545672,57.427742,133.998066,9877.571693
230.548219,19.142581,153.140646,9858.429112
230.550767,76.570323,229.710970,9820.143950
230.553314,95.712904,153.140646,9877.571693
230.555861,76.570323,210.568389,9839.286531
230.558409,76.570323,172.283227,9877.571693
230.560956,76.570323,229.710970,9858.429112
230.563504,19.142581,153.140646,9820.143950
230.566051,19.142581,210.568389,9801.001370
230.568598,95.712904,95.712904,9801.001370
230.571146,57.427742,153.140646,9762.716208
230.573693,38.285162,133.998066,9820.143950
230.576240,76.570323,210.568389,9820.143950
230.578788,95.712904,153.140646,9934.999435
230.581335,95.712904,114.855485,9858.429112
230.583883,76.570323,153.140646,9839.286531
230.586430,76.570323,153.140646,9820.143950
230.588977,76.570323,210.568389,9820.143950
230.591525,76.570323,172.283227,9877.571693
230.594072,76.570323,172.283227,9801.001370
230.596620,114.855485,210.568389,9858.429112
230.599167,95.712904,153.140646,9801.001370
230.601714,38.285162,76.570323,9858.429112
230.604262,76.570323,114.855485,9858.429112
230.606809,19.142581,153.140646,9858.429112
230.609357,19.142581,153.140646,9896.714274
230.611904,114.855485,114.855485,9858.429112
230.614451,19.142581,172.283227,9896.714274
230.616999,-19.142581,133.998066,9896.714274
230.619546,114.855485,153.140646,9877.571693
230.622094,38.285162,172.283227,9896.714274
230.624641,38.285162,133.998066,9839.286531
230.627188,76.570323,210.568389,9820.143950
230.629736,76.570323,153.140646,9858.429112
230.632283,57.427742,57.427742,9896.714274
230.634831,57.427742,153.140646,9934.999435
230.637378,-57.427742,172.283227,9896.714274
230.639925,38.285162,133.998066,9858.429112
230.642473,95.712904,114.855485,9858.429112
230.645020,38.285162,133.998066,9762.716208
230.647568,38.285162,76.570323,9839.286531
230.650115,76.570323,172.283227,9801.001370
230.652662,19.142581,153.140646,9801.001370
230.655210,76.570323,114.855485,9877.571693
230.657757,76.570323,210.568389,9877.571693
230.660305,19.142581,153.140646,9839.286531
230.662852,57.427742,191.425808,9743.573627
230.665399,95.712904,172.283227,9839.286531
230.667947,76.570323,153.140646,9839.286531
230.670494,57.427742,114.855485,9896.714274
230.673042,57.427742,133.998066,9934.999435
230.675589,76.570323,210.568389,9820.143950
230.678136,38.285162,191.425808,9915.856854
230.680684,76.570323,172.283227,9839.286531
230.683231,-19.142581,191.425808,9801.001370
230.685779,57.427742,114.855485,9820.143950
230.688326,76.570323,172.283227,9858.429112
230.690873,19.142581,133.998066,9858.429112
230.693420,76.570323,114.855485,9820.143950
230.695967,19.142581,248.853550,9839.286531
230.698514,76.570323,210.568389,9858.429112
230.701061,95.712904,172.283227,9820.143950
230.703608,114.855485,210.568389,9820.143950
230.706155,76.570323,114.855485,9858.429112
230.708702,114.855485,172.283227,9858.429112
230.711249,19.142581,210.568389,9820.143950
230.713796,19.142581,210.568389,9781.858789
230.716342,95.712904,172.283227,9820.143950
230.718889,76.570323,210.568389,9801.001370
230.721436,76.570323,76.570323,9915.856854
230.723983,114.855485,153.140646,10011.569758
230.726530,19.142581,114.855485,9934.999435
230.729077,19.142581,191.425808,9801.001370
230.731624,19.142581,191.425808,9858.429112
230.734171,76.570323,114.855485,9877.571693
230.736718,76.570323,114.855485,9762.716208
230.739264,76.570323,114.855485,9839.286531
230.741811,19.142581,153.140646,9839.286531
230.744358,19.142581,133.998066,9858.429112
230.746905,38.285162,95.712904,9896.714274
230.749452,76.570323,172.283227,9820.143950
230.751999,114.855485,191.425808,9820.143950
230.754546,95.712904,210.568389,9858.429112
230.757093,19.142581,210.568389,9877.571693
230.759640,19.142581,95.712904,9858.429112
230.762187,76.570323,210.568389,9839.286531
230.764733,19.142581,210.568389,9839.286531
230.767280,38.285162,210.568389,9915.856854
230.769827,114.855485,114.855485,9762.716208
230.772374,19.142581,153.140646,9801.001370
230.774921,19.142581,248.853550,9858.429112
230.777468,-0.000000,153.140646,9801.001370
230.780015,114.855485,172.283227,9820.143950
230.782562,95.712904,114.855485,9877.571693
230.785109,133.998066,172.283227,9877.571693
230.787656,76.570323,133.998066,9724.431046
230.790202,76.570323,210.568389,9858.429112
230.792749,19.142581,114.855485,9934.999435
230.795296,19.142581,191.425808,9858.429112
230.797842,19.142581,114.855485,9877.571693
230.800388,114.855485,210.568389,9820.143950
230.802935,19.142581,191.425808,9858.429112
230.805481,19.142581,153.140646,9820.143950
230.808028,153.140646,153.140646,9877.571693
230.810574,95.712904,114.855485,9820.143950
230.813120,76.570323,191.425808,9801.001370
230.815667,57.427742,57.427742,9858.429112
230.818213,76.570323,114.855485,9877.571693
230.820759,76.570323,229.710970,9858.429112
230.823306,19.142581,191.425808,9839.286531
230.825852,114.855485,172.283227,9858.429112
230.828399,114.855485,172.283227,9839.286531
230.830945,-57.427742,153.140646,9839.286531
230.833491,19.142581,153.140646,9839.286531
230.836038,95.712904,114.855485,9896.714274
230.838584,57.427742,153.140646,9877.571693
230.841130,76.570323,172.283227,9801.001370
230.843677,95.712904,172.283227,9801.001370
230.846223,19.142581,133.998066,9839.286531
230.848769,76.570323,172.283227,9839.286531
230.851316,57.427742,114.855485,9781.858789
230.853862,19.142581,133.998066,9801.001370
230.856409,76.570323,133.998066,9801.001370
230.858955,114.855485,172.283227,9839.286531
230.861501,76.570323,229.710970,9877.571693
230.864048,-0.000000,153.140646,9781.858789
230.866594,57.427742,114.855485,9801.001370
230.869140,95.712904,172.283227,9858.429112
230.871687,19.142581,172.283227,9896.714274
230.874233,76.570323,210.568389,9877.571693
230.876780,19.142581,172.283227,9896.714274
230.879326,38.285162,248.853550,9858.429112
230.881872,95.712904,210.568389,9858.429112
230.884419,76.570323,191.425808,9858.429112
230.886965,-0.000000,172.283227,9896.714274
230.889511,95.712904,191.425808,9858.429112
230.892058,76.570323,172.283227,9858.429112
230.894604,95.712904,172.283227,9839.286531
230.897150,76.570323,172.283227,9877.571693
230.899696,57.427742,133.998066,9934.999435
230.902241,76.570323,153.140646,9820.143950
230.904787,19.142581,153.140646,9801.001370
230.907333,76.570323,172.283227,9839.286531
230.909879,95.712904,95.712904,9839.286531
230.912424,95.712904,114.855485,9858.429112
230.914970,76.570323,133.998066,9858.429112
230.917516,57.427742,95.712904,9877.571693
230.920062,38.285162,76.570323,9762.716208
230.922607,133.998066,210.568389,9839.286531
230.925153,76.570323,114.855485,9820.143950
230.927699,76.570323,114.855485,9820.143950
230.930245,76.570323,153.140646,9762.716208
230.932790,76.570323,229.710970,9801.001370
230.935336,76.570323,133.998066,9915.856854
230.937882,76.570323,114.855485,9877.571693
230.940428,57.427742,172.283227,9858.429112
230.942973,114.855485,114.855485,9858.429112
230.945519,57.427742,114.855485,9896.714274
230.948065,133.998066,172.283227,9858.429112
230.950610,76.570323,114.855485,9877.571693
230.953156,19.142581,210.568389,9839.286531
230.955702,95.712904,191.425808,9839.286531
230.958248,76.570323,114.855485,9858.429112
230.960793,38.285162,114.855485,9915.856854
230.963339,95.712904,114.855485,9858.429112
230.965885,76.570323,172.283227,9877.571693
230.968431,76.570323,172.283227,9877.571693
230.970976,133.998066,114.855485,9820.143950
230.973522,114.855485,153.140646,9762.716208
230.976068,57.427742,114.855485,9858.429112
230.978614,-0.000000,133.998066,9896.714274
230.981159,-0.000000,153.140646,9801.001370
230.983705,57.427742,133.998066,9877.571693
230.986251,114.855485,153.140646,9877.571693
230.988797,114.855485,114.855485,9820.143950
230.991342,114.855485,210.568389,9820.143950
230.993888,-19.142581,153.140646,9801.001370
230.996434,114.855485,153.140646,9820.143950
230.998979,95.712904,133.998066,9934.999435
231.001524,76.570323,172.283227,9839.286531
231.004069,19.142581,133.998066,9801.001370
231.006614,114.855485,191.425808,9801.001370
231.009160,76.570323,114.855485,9877.571693
231.011705,114.855485,229.710970,9820.143950
231.014250,95.712904,114.855485,9762.716208
231.016795,76.570323,153.140646,9820.143950
231.019340,76.570323,172.283227,9877.571693
231.021885,-19.142581,76.570323,9801.001370
231.024430,-19.142581,153.140646,9781.858789
231.026975,76.570323,114.855485,9839.286531
231.029520,114.855485,114.855485,9839.286531
231.032066,76.570323,172.283227,9801.001370
231.034611,-0.000000,153.140646,9839.286531
231.037156,57.427742,191.425808,9934.999435
231.039701,76.570323,229.710970,9839.286531
231.042246,-19.142581,133.998066,9858.429112
231.044791,95.712904,153.140646,9858.429112
231.047336,38.285162,210.568389,9896.714274
231.049881,76.570323,172.283227,9877.571693
231.052427,19.142581,153.140646,9820.143950
231.054972,114.855485,248.853550,9839.286531
231.057517,114.855485,229.710970,9858.429112
231.060062,76.570323,172.283227,9820.143950
231.062607,19.142581,153.140646,9839.286531
231.065152,19.142581,153.140646,9820.143950
231.067697,76.570323,191.425808,9839.286531
231.070242,19.142581,191.425808,9801.001370
231.072788,57.427742,133.998066,9877.571693
231.075333,76.570323,210.568389,9877.571693
231.077878,19.142581,95.712904,9934.999435
231.080423,19.142581,153.140646,9839.286531
231.082968,-19.142581,133.998066,9762.716208
231.085513,76.570323,172.283227,9839.286531
231.088058,95.712904,114.855485,9877.571693
231.090603,76.570323,153.140646,9781.858789
231.093148,19.142581,114.855485,9858.429112
231.095694,76.570323,153.140646,9820.143950
231.098239,76.570323,172.283227,9877.571693
231.100783,19.142581,172.283227,9820.143950
231.103328,57.427742,95.712904,9858.429112
231.105873,19.142581,191.425808,9858.429112
231.108417,76.570323,210.568389,9839.286531
231.110962,19.142581,153.140646,9839.286531
231.113507,114.855485,153.140646,9877.571693
231.116052,114.855485,172.283227,9877.571693
231.118596,76.570323,191.425808,9858.429112
231.121141,57.427742,191.425808,9877.571693
231.123686,57.427742,133.998066,9934.999435
231.126230,19.142581,153.140646,9839.286531
231.128775,95.712904,172.283227,9839.286531
231.131320,76.570323,172.283227,9762.716208
231.133864,95.712904,114.855485,9820.143950
231.136409,76.570323,210.568389,9858.429112
231.138954,95.712904,114.855485,9839.286531
231.141498,114.855485,210.568389,9839.286531
231.144043,-0.000000,191.425808,9801.001370
231.146588,133.998066,153.140646,9839.286531
231.149132,38.285162,114.855485,9724.431046
231.151677,76.570323,114.855485,9820.143950
231.154222,19.142581,229.710970,9762.716208
231.156766,76.570323,172.283227,9762.716208
231.159311,133.998066,114.855485,9877.571693
231.161856,76.570323,114.855485,9801.001370
231.164401,76.570323,191.425808,9858.429112
231.166945,76.570323,172.283227,9820.143950
231.169490,76.570323,172.283227,9877.571693
231.172035,76.570323,210.568389,9820.143950
231.174579,38.285162,76.570323,9877.571693
231.177124,76.570323,172.283227,9820.143950
231.179669,76.570323,172.283227,9762.716208
231.182213,95.712904,191.425808,9934.999435
231.184758,76.570323,153.140646,9877.571693
231.187303,76.570323,172.283227,9877.571693
231.189847,114.855485,172.283227,9858.429112
231.192392,57.427742,153.140646,9877.571693
231.194937,76.570323,172.283227,9801.001370
231.197481,114.855485,114.855485,9858.429112
231.200026,95.712904,114.855485,9762.716208
231.202570,76.570323,172.283227,9820.143950
231.205114,76.570323,172.283227,9820.143950
231.207658,57.427742,114.855485,9839.286531
231.210202,114.855485,210.568389,9877.571693
231.212746,133.998066,133.998066,9801.001370
231.215290,114.855485,114.855485,9781.858789
231.217834,76.570323,210.568389,9858.429112
231.220378,57.427742,114.855485,9858.429112
231.222922,114.855485,172.283227,9877.571693
231.225466,76.570323,114.855485,9762.716208
231.228010,76.570323,191.425808,9820.143950
231.230554,57.427742,191.425808,9858.429112
231.233098,76.570323,229.710970,9858.429112
231.235642,19.142581,153.140646,9781.858789
231.238186,57.427742,191.425808,9877.571693
231.240731,114.855485,229.710970,9877.571693
231.243275,19.142581,153.140646,9801.001370
231.245819,114.855485,191.425808,9801.001370
231.248363,133.998066,153.140646,9801.001370
231.250907,76.570323,172.283227,9801.001370
231.253451,133.998066,172.283227,9839.286531
231.255995,19.142581,248.853550,9801.001370
231.258539,95.712904,229.710970,9801.001370
231.261083,76.570323,95.712904,9896.714274
231.263627,76.570323,172.283227,9877.571693
231.266171,19.142581,172.283227,9858.429112
231.268715,76.570323,172.283227,9877.571693
231.271259,76.570323,191.425808,9858.429112
231.273803,114.855485,210.568389,9820.143950
231.276347,76.570323,210.568389,9858.429112
231.278891,76.570323,114.855485,9762.716208
231.281435,76.570323,172.283227,9801.001370
231.283979,38.285162,172.283227,9915.856854
231.286523,114.855485,114.855485,9820.143950
231.289067,76.570323,172.283227,9839.286531
231.291611,76.570323,153.140646,9820.143950
231.294155,19.142581,210.568389,9839.286531
231.296699,76.570323,172.283227,9820.143950
231.299243,76.570323,172.283227,9877.571693
231.301787,114.855485,114.855485,9820.143950
231.304344,76.570323,114.855485,9820.143950
231.306888,19.142581,153.140646,9820.143950
231.309431,57.427742,95.712904,9896.714274
231.311974,76.570323,229.710970,9820.143950
231.314517,114.855485,172.283227,9858.429112
231.317061,76.570323,172.283227,9801.001370
231.319604,57.427742,153.140646,9877.571693
231.322147,19.142581,153.140646,9801.001370
231.324691,76.570323,210.568389,9820.143950
231.327234,114.855485,172.283227,9762.716208
231.329777,76.570323,172.283227,9820.143950
231.332321,76.570323,210.568389,9839.286531
231.334864,19.142581,172.283227,9781.858789
231.337407,114.855485,191.425808,9762.716208
231.339951,114.855485,114.855485,9839.286531
231.342494,76.570323,210.568389,9877.571693
231.345037,38.285162,153.140646,9858.429112
231.347581,133.998066,172.283227,9820.143950
231.350124,19.142581,153.140646,9896.714274
231.352667,76.570323,172.283227,9858.429112
231.355210,95.712904,153.140646,9820.143950
231.357754,76.570323,172.283227,9839.286531
231.360297,95.712904,210.568389,9858.429112
231.362840,114.855485,210.568389,9820.143950
231.365384,-19.142581,133.998066,9877.571693
231.367927,19.142581,191.425808,9858.429112
231.370470,-19.142581,114.855485,9820.143950
231.373014,19.142581,172.283227,9839.286531
231.375557,76.570323,229.710970,9858.429112
231.378100,19.142581,133.998066,9801.001370
231.380644,19.142581,153.140646,9839.286531
231.383187,38.285162,210.568389,9839.286531
231.385730,76.570323,172.283227,9877.571693
231.388274,133.998066,210.568389,9858.429112
231.390817,57.427742,153.140646,9934.999435
231.393360,76.570323,114.855485,9820.143950
231.395903,-19.142581,191.425808,9896.714274
231.398447,76.570323,210.568389,9877.571693
231.400990,114.855485,210.568389,9858.429112
231.403533,95.712904,191.425808,9820.143950
231.406044,76.570323,172.283227,9877.571693
231.408554,114.855485,153.140646,9858.429112
231.411064,76.570323,172.283227,9820.143950
231.413575,76.570323,172.283227,9820.143950
231.416085,57.427742,191.425808,9934.999435
231.418595,38.285162,133.998066,9839.286531
231.421106,-57.427742,153.140646,9801.001370
231.423616,19.142581,172.283227,9781.858789
231.426127,19.142581,153.140646,9820.143950
231.428637,95.712904,229.710970,9934.999435
231.431147,76.570323,153.140646,9762.716208
231.433658,19.142581,172.283227,9801.001370
231.436168,57.427742,210.568389,9877.571693
231.438678,19.142581,153.140646,9858.429112
231.441189,76.570323,172.283227,9801.001370
231.443699,76.570323,210.568389,9858.429112
231.446209,95.712904,114.855485,9896.714274
231.448720,76.570323,210.568389,9762.716208
231.451230,76.570323,172.283227,9820.143950
231.453740,76.570323,133.998066,9839.286531
231.456251,38.285162,172.283227,9915.856854
231.458761,57.427742,153.140646,9877.571693
231.461271,76.570323,248.853550,9915.856854
231.463782,114.855485,210.568389,9877.571693
231.466292,76.570323,172.283227,9877.571693
231.468802,76.570323,210.568389,9877.571693
231.471313,38.285162,172.283227,9915.856854
231.473823,57.427742,95.712904,9858.429112
231.476333,19.142581,133.998066,9801.001370
231.478844,76.570323,114.855485,9762.716208
231.481354,76.570323,114.855485,9877.571693
231.483864,76.570323,210.568389,9839.286531
231.486375,76.570323,114.855485,9839.286531
231.488885,57.427742,114.855485,9801.001370
231.491395,76.570323,172.283227,9877.571693
231.493906,57.427742,153.140646,9877.571693
231.496416,76.570323,210.568389,9839.286531
231.498927,76.570323,210.568389,9801.001370
231.501437,76.570323,210.568389,9858.429112
231.503947,76.570323,153.140646,9839.286531
231.506464,-19.142581,172.283227,9915.856854
231.508981,19.142581,172.283227,9858.429112
231.511498,38.285162,133.998066,9858.429112
231.514015,76.570323,210.568389,9858.429112
231.516533,19.142581,153.140646,9839.286531
231.519050,95.712904,114.855485,9801.001370
231.521567,19.142581,133.998066,9839.286531
231.524084,19.142581,133.998066,9896.714274
231.526601,76.570323,153.140646,9839.286531
231.529118,57.427742,191.425808,9934.999435
231.531635,133.998066,248.853550,9858.429112
231.534152,19.142581,133.998066,9781.858789
231.536669,76.570323,114.855485,9820.143950
231.539186,114.855485,95.712904,9820.143950
231.541703,76.570323,172.283227,9820.143950
231.544220,38.285162,76.570323,9877.571693
231.546737,133.998066,191.425808,9858.429112
231.549254,57.427742,133.998066,9839.286531
231.551771,133.998066,172.283227,9820.143950
231.554289,19.142581,191.425808,9839.286531
231.556806,19.142581,133.998066,9896.714274
231.559323,76.570323,153.140646,9820.143950
231.561840,76.570323,172.283227,9839.286531
231.564357,57.427742,153.140646,9877.571693
231.566874,76.570323,114.855485,9858.429112
231.569391,19.142581,133.998066,9801.001370
231.571908,19.142581,153.140646,9801.001370
231.574425,76.570323,229.710970,9858.429112
231.576942,38.285162,76.570323,9820.143950
231.579459,76.570323,114.855485,9858.429112
231.581976,19.142581,172.283227,9820.143950
231.584493,76.570323,114.855485,9820.143950
231.587010,76.570323,114.855485,9858.429112
231.589528,19.142581,153.140646,9896.714274
231.592045,38.285162,114.855485,9839.286531
231.594562,76.570323,229.710970,9877.571693
231.597079,76.570323,210.568389,9858.429112
231.599596,19.142581,133.998066,9896.714274
231.602113,114.855485,172.283227,9820.143950
231.604630,57.427742,248.853550,9934.999435
231.607153,114.855485,95.712904,9820.143950
231.609675,57.427742,95.712904,9896.714274
231.612198,19.142581,153.140646,9858.429112
231.614721,76.570323,172.283227,9820.143950
231.617243,114.855485,172.283227,9858.429112
231.619766,76.570323,172.283227,9820.143950
231.622289,95.712904,114.855485,9839.286531
231.624811,19.142581,153.140646,9801.001370
231.627334,114.855485,229.710970,9820.143950
231.629857,95.712904,114.855485,9839.286531
231.632379,114.855485,114.855485,9896.714274
231.634902,114.855485,133.998066,9915.856854
231.637425,19.142581,133.998066,9839.286531
231.639947,76.570323,191.425808,9858.429112
231.642470,19.142581,133.998066,9896.714274
231.644993,95.712904,76.570323,9896.714274
231.647515,19.142581,153.140646,9858.429112
231.650038,76.570323,76.570323,9896.714274
231.652561,114.855485,210.568389,9858.429112
231.655083,95.712904,210.568389,9820.143950
231.657606,76.570323,210.568389,9858.429112
231.660129,95.712904,191.425808,9877.571693
231.662651,76.570323,191.425808,9801.001370
231.665174,133.998066,133.998066,9801.001370
231.667697,57.427742,114.855485,9896.714274
231.670219,19.142581,153.140646,9839.286531
231.672742,114.855485,114.855485,9839.286531
231.675265,114.855485,172.283227,9839.286531
231.677787,76.570323,172.283227,9820.143950
231.680310,114.855485,133.998066,9934.999435
231.682832,76.570323,153.140646,9820.143950
231.685355,114.855485,172.283227,9820.143950
231.687878,19.142581,191.425808,9896.714274
231.690400,38.285162,172.283227,9896.714274
231.692923,76.570323,210.568389,9877.571693
231.695446,19.142581,133.998066,9839.286531
231.697968,-19.142581,153.140646,9896.714274
231.700491,-0.000000,191.425808,9858.429112
231.703014,76.570323,172.283227,9762.716208
231.705536,76.570323,133.998066,9896.714274
231.708064,76.570323,114.855485,9801.001370
231.710591,114.855485,153.140646,9934.999435
231.713118,76.570323,114.855485,9877.571693
231.715645,76.570323,210.568389,9801.001370
231.718172,133.998066,210.568389,9877.571693
231.720699,57.427742,133.998066,9877.571693
231.723226,114.855485,114.855485,9801.001370
231.725753,76.570323,153.140646,9934.999435
231.728280,76.570323,229.710970,9858.429112
231.730807,38.285162,114.855485,9915.856854
231.733335,57.427742,133.998066,9934.999435
231.735862,76.570323,229.710970,9877.571693
231.738389,38.285162,210.568389,9915.856854
231.740916,19.142581,153.140646,9896.714274
231.743443,38.285162,153.140646,9858.429112
231.745970,-19.142581,172.283227,9896.714274
231.748497,57.427742,153.140646,9877.571693
231.751024,76.570323,191.425808,9934.999435
231.753551,76.570323,172.283227,9858.429112
231.756079,19.142581,191.425808,9801.001370
231.758606,19.142581,191.425808,9839.286531
231.761133,133.998066,114.855485,9820.143950
231.763660,95.712904,114.855485,9896.714274
231.766187,76.570323,229.710970,9858.429112
231.768714,57.427742,229.710970,9839.286531
231.771241,133.998066,172.283227,9801.001370
231.773768,19.142581,210.568389,9839.286531
231.776295,76.570323,172.283227,9858.429112
231.778822,153.140646,133.998066,9877.571693
231.781350,19.142581,210.568389,9839.286531
231.783877,-0.000000,248.853550,9801.001370
231.786404,95.712904,114.855485,9839.286531
231.788931,76.570323,191.425808,9877.571693
231.791458,57.427742,153.140646,9934.999435
231.793985,19.142581,153.140646,9801.001370
231.796512,76.570323,172.283227,9820.143950
231.799039,114.855485,76.570323,9915.856854
231.801566,19.142581,114.855485,9820.143950
231.804093,76.570323,153.140646,9877.571693
231.806621,76.570323,210.568389,9877.571693
231.809151,19.142581,133.998066,9896.714274
231.811682,114.855485,172.283227,9877.571693
231.814213,76.570323,172.283227,9877.571693
231.816744,76.570323,210.568389,9801.001370
231.819274,19.142581,133.998066,9896.714274
231.821805,57.427742,153.140646,9934.999435
231.824336,76.570323,210.568389,9877.571693
231.826867,76.570323,172.283227,9839.286531
231.829398,114.855485,153.140646,9858.429112
231.831928,114.855485,172.283227,9858.429112
231.834459,133.998066,114.855485,9839.286531
231.836990,19.142581,133.998066,9839.286531
231.839521,76.570323,172.283227,9762.716208
231.842051,57.427742,95.712904,9781.858789
231.844582,19.142581,153.140646,9858.429112
231.847113,114.855485,172.283227,9820.143950
231.849644,57.427742,191.425808,9934.999435
231.852175,19.142581,153.140646,9801.001370
231.854705,76.570323,210.568389,9877.571693
231.857236,114.855485,172.283227,9858.429112
231.859767,76.570323,210.568389,9858.429112
231.862298,19.142581,210.568389,9858.429112
231.864829,76.570323,114.855485,9820.143950
231.867359,95.712904,172.283227,9820.143950
231.869890,114.855485,153.140646,9877.571693
231.872421,95.712904,172.283227,9820.143950
231.874952,76.570323,210.568389,9877.571693
231.877482,95.712904,153.140646,9934.999435
231.880013,95.712904,95.712904,9801.001370
231.882544,57.427742,114.855485,9858.429112
231.885075,95.712904,57.427742,9858.429112
231.887606,153.140646,114.855485,9801.001370
231.890136,76.570323,153.140646,9839.286531
231.892667,38.285162,248.853550,9820.143950
231.895198,76.570323,172.283227,9839.286531
231.897729,57.427742,114.855485,9858.429112
231.900259,114.855485,153.140646,9839.286531
231.902790,57.427742,95.712904,9896.714274
231.905321,57.427742,95.712904,9839.286531
231.907852,19.142581,191.425808,9896.714274
231.910386,76.570323,210.568389,9877.571693
231.912920,95.712904,210.568389,9820.143950
231.915454,57.427742,95.712904,9820.143950
231.917988,76.570323,153.140646,9877.571693
231.920522,57.427742,114.855485,9801.001370
231.923056,57.427742,95.712904,9820.143950
231.925589,114.855485,114.855485,9801.001370
231.928123,76.570323,114.855485,9877.571693
231.930657,-0.000000,172.283227,9820.143950
231.933191,19.142581,191.425808,9820.143950
231.935725,95.712904,191.425808,9934.999435
231.938259,19.142581,133.998066,9801.001370
231.940793,76.570323,191.425808,9820.143950
231.943327,57.427742,95.712904,9896.714274
231.945861,76.570323,114.855485,9858.429112
231.948395,95.712904,172.283227,9877.571693
231.950929,57.427742,191.425808,9877.571693
231.953463,19.142581,114.855485,9934.999435
231.955997,76.570323,229.710970,9839.286531
231.958531,76.570323,172.283227,9820.143950
231.961065,76.570323,172.283227,9858.429112
231.963599,114.855485,114.855485,9877.571693
231.966133,76.570323,172.283227,9820.143950
231.968667,114.855485,210.568389,9839.286531
231.971201,-38.285162,153.140646,9839.286531
231.973734,95.712904,172.283227,9877.571693
231.976268,57.427742,95.712904,9858.429112
231.978802,133.998066,210.568389,9820.143950
231.981336,38.285162,210.568389,9801.001370
231.983870,76.570323,114.855485,9820.143950
231.986404,76.570323,114.855485,9858.429112
231.988938,153.140646,95.712904,9839.286531
231.991472,114.855485,76.570323,9896.714274
231.994006,57.427742,172.283227,9896.714274
231.996540,19.142581,191.425808,9858.429112
231.999074,76.570323,114.855485,9820.143950
232.001608,76.570323,210.568389,9820.143950
232.004142,76.570323,133.998066,9839.286531
232.006676,57.427742,76.570323,9877.571693
232.009210,19.142581,153.140646,9896.714274
232.011746,76.570323,210.568389,9839.286531
232.014282,19.142581,153.140646,9896.714274
232.016818,76.570323,210.568389,9762.716208
232.019354,76.570323,172.283227,9877.571693
232.021891,19.142581,172.283227,9801.001370
232.024427,19.142581,133.998066,9801.001370
232.026963,95.712904,133.998066,9934.999435
232.029499,191.425808,95.712904,9934.999435
232.032035,76.570323,114.855485,9839.286531
232.034572,19.142581,153.140646,9839.286531
232.037108,76.570323,210.568389,9877.571693
232.039644,76.570323,114.855485,9858.429112
232.042180,76.570323,172.283227,9877.571693
232.044716,76.570323,210.568389,9820.143950
232.047253,76.570323,153.140646,9877.571693
232.049789,57.427742,95.712904,9801.001370
232.052325,19.142581,133.998066,9896.714274
232.054861,57.427742,153.140646,9934.999435
232.057397,38.285162,114.855485,9896.714274
232.059933,133.998066,191.425808,9820.143950
232.062470,114.855485,191.425808,9762.716208
232.065006,76.570323,172.283227,9820.143950
232.067542,76.570323,114.855485,9762.716208
232.070078,76.570323,114.855485,9877.571693
232.072614,-0.000000,153.140646,9858.429112
232.075151,95.712904,153.140646,9839.286531
232.077687,76.570323,38.285162,9915.856854
232.080223,38.285162,153.140646,9915.856854
232.082759,19.142581,248.853550,9781.858789
232.085295,19.142581,191.425808,9781.858789
232.087831,76.570323,172.283227,9839.286531
232.090368,114.855485,114.855485,9858.429112
232.092904,57.427742,95.712904,9858.429112
232.095440,57.427742,95.712904,9781.858789
232.097976,76.570323,172.283227,9858.429112
232.100512,114.855485,114.855485,9858.429112
232.103049,95.712904,114.855485,9877.571693
232.105585,76.570323,172.283227,9801.001370
232.108121,95.712904,210.568389,9820.143950
232.110657,76.570323,172.283227,9858.429112
232.113195,76.570323,114.855485,9839.286531
232.115733,19.142581,133.998066,9858.429112
232.118271,19.142581,210.568389,9801.001370
232.120808,57.427742,114.855485,9801.001370
232.123346,76.570323,210.568389,9877.571693
232.125884,76.570323,153.140646,9839.286531
232.128422,114.855485,210.568389,9839.286531
232.130960,76.570323,172.283227,9877.571693
232.133497,57.427742,153.140646,9934.999435
232.136035,76.570323,153.140646,9877.571693
232.138573,76.570323,210.568389,9877.571693
232.141111,19.142581,172.283227,9839.286531
232.143649,19.142581,133.998066,9839.286531
232.146186,114.855485,114.855485,9896.714274
232.148724,76.570323,210.568389,9820.143950
232.151262,76.570323,172.283227,9877.571693
232.153800,133.998066,153.140646,9839.286531
232.156338,76.570323,210.568389,9858.429112
232.158875,76.570323,172.283227,9858.429112
232.161413,95.712904,114.855485,9839.286531
232.163951,95.712904,172.283227,9896.714274
232.166489,57.427742,133.998066,9934.999435
232.169027,76.570323,133.998066,9858.429112
232.171564,19.142581,153.140646,9896.714274
232.174102,76.570323,114.855485,9820.143950
232.176640,76.570323,114.855485,9858.429112
232.179178,153.140646,172.283227,9934.999435
232.181716,114.855485,210.568389,9858.429112
232.184253,95.712904,95.712904,9839.286531
232.186791,95.712904,191.425808,9839.286531
232.189329,76.570323,210.568389,9858.429112
232.191867,76.570323,114.855485,9858.429112
232.194405,19.142581,191.425808,9801.001370
232.196942,19.142581,133.998066,9839.286531
232.199480,114.855485,172.283227,9877.571693
232.202018,76.570323,114.855485,9820.143950
232.204556,38.285162,133.998066,9820.143950
232.207094,114.855485,172.283227,9820.143950
232.209631,19.142581,172.283227,9858.429112
232.212169,19.142581,133.998066,9801.001370
232.214708,76.570323,172.283227,9820.143950
232.217247,95.712904,153.140646,9820.143950
232.219786,38.285162,133.998066,9839.286531
232.222326,57.427742,95.712904,9839.286531
232.224865,57.427742,210.568389,9820.143950
232.227404,57.427742,95.712904,9896.714274
232.229943,19.142581,153.140646,9896.714274
232.232482,57.427742,114.855485,9858.429112
232.235021,76.570323,172.283227,9858.429112
232.237560,76.570323,153.140646,9858.429112
232.240099,19.142581,172.283227,9896.714274
232.242638,19.142581,133.998066,9801.001370
232.245177,19.142581,191.425808,9820.143950
232.247716,76.570323,114.855485,9839.286531
232.250255,57.427742,191.425808,9934.999435
232.252794,-0.000000,133.998066,9820.143950
232.255333,57.427742,153.140646,9877.571693
232.257873,76.570323,210.568389,9839.286531
232.260412,19.142581,172.283227,9896.714274
232.262951,57.427742,210.568389,9762.716208
232.265490,114.855485,114.855485,9762.716208
232.268029,114.855485,114.855485,9820.143950
232.270568,76.570323,114.855485,9877.571693
232.273107,76.570323,153.140646,9858.429112
232.275646,38.285162,248.853550,9820.143950
232.278185,76.570323,229.710970,9877.571693
232.280724,133.998066,191.425808,9839.286531
232.283263,19.142581,114.855485,9839.286531
232.285802,76.570323,172.283227,9858.429112
232.288341,76.570323,114.855485,9858.429112
232.290880,19.142581,95.712904,9934.999435
232.293420,76.570323,114.855485,9877.571693
232.295959,38.285162,76.570323,9762.716208
232.298498,76.570323,229.710970,9820.143950
232.301037,76.570323,229.710970,9877.571693
232.303576,76.570323,172.283227,9820.143950
232.306115,114.855485,172.283227,9934.999435
232.308654,57.427742,95.712904,9820.143950
232.311193,114.855485,172.283227,9820.143950
232.313732,19.142581,172.283227,9839.286531
232.316228,76.570323,210.568389,9877.571693
232.318737,38.285162,114.855485,9915.856854
232.321246,76.570323,153.140646,9858.429112
232.323755,95.712904,114.855485,9801.001370
232.326263,114.855485,114.855485,9820.143950
232.328772,133.998066,114.855485,9896.714274
232.331281,38.285162,76.570323,9839.286531
232.333790,38.285162,133.998066,9877.571693
232.336298,57.427742,153.140646,9934.999435
232.338807,19.142581,153.140646,9896.714274
232.341316,76.570323,172.283227,9858.429112
232.343825,57.427742,172.283227,9934.999435
232.346334,76.570323,172.283227,9858.429112
232.348842,76.570323,172.283227,9877.571693
232.351351,76.570323,114.855485,9877.571693
232.353860,76.570323,114.855485,9820.143950
232.356369,95.712904,191.425808,9934.999435
232.358877,19.142581,248.853550,9839.286531
232.361386,76.570323,172.283227,9801.001370
232.363895,114.855485,172.283227,9858.429112
232.366404,57.427742,95.712904,9839.286531
232.368913,76.570323,172.283227,9877.571693
232.371421,-19.142581,191.425808,9858.429112
232.373930,-0.000000,172.283227,9801.001370
232.376439,57.427742,133.998066,9877.571693
232.378948,133.998066,153.140646,9877.571693
232.381457,114.855485,191.425808,9934.999435
232.383965,19.142581,191.425808,9781.858789
232.386474,76.570323,153.140646,9820.143950
232.388983,57.427742,114.855485,9801.001370
232.391492,38.285162,133.998066,9820.143950
232.394000,76.570323,172.283227,9820.143950
232.396509,76.570323,153.140646,9801.001370
232.399018,76.570323,210.568389,9877.571693
232.401527,57.427742,153.140646,9877.571693
232.404036,19.142581,248.853550,9896.714274
232.406544,114.855485,172.283227,9801.001370
232.409053,76.570323,172.283227,9839.286531
232.411562,95.712904,95.712904,9801.001370
232.414071,19.142581,210.568389,9839.286531
232.416587,76.570323,172.283227,9858.429112
232.419102,76.570323,153.140646,9858.429112
232.421618,95.712904,172.283227,9839.286531
232.424134,76.570323,114.855485,9820.143950
232.426650,76.570323,172.283227,9877.571693
232.429166,76.570323,114.855485,9858.429112
232.431682,76.570323,114.855485,9877.571693
232.434197,38.285162,153.140646,9801.001370
232.436713,76.570323,210.568389,9801.001370
232.439229,95.712904,114.855485,9877.571693
232.441745,57.427742,133.998066,9877.571693
232.444261,76.570323,114.855485,9820.143950
232.446777,19.142581,153.140646,9801.001370
232.449292,76.570323,210.568389,9877.571693
232.451808,76.570323,153.140646,9820.143950
232.454324,76.570323,172.283227,9762.716208
232.456840,114.855485,114.855485,9877.571693
232.459356,57.427742,95.712904,9839.286531
232.461872,95.712904,172.283227,9801.001370
232.464387,76.570323,172.283227,9877.571693
232.466903,95.712904,114.855485,9839.286531
232.469419,76.570323,172.283227,9762.716208
232.471935,76.570323,229.710970,9877.571693
232.474451,-19.142581,133.998066,9877.571693
232.476967,57.427742,229.710970,9896.714274
232.479482,-19.142581,153.140646,9801.001370
232.481998,19.142581,153.140646,9839.286531
232.484514,57.427742,95.712904,9839.286531
232.487030,153.140646,114.855485,9896.714274
232.489546,-19.142581,133.998066,9858.429112
232.492062,19.142581,191.425808,9896.714274
232.494578,19.142581,172.283227,9858.429112
232.497093,76.570323,210.568389,9762.716208
232.499609,76.570323,229.710970,9858.429112
232.502125,57.427742,95.712904,9839.286531
232.504641,114.855485,229.710970,9858.429112
232.507157,114.855485,210.568389,9820.143950
232.509673,133.998066,153.140646,9839.286531
232.512188,19.142581,210.568389,9877.571693
232.514704,19.142581,172.283227,9858.429112
232.517226,76.570323,114.855485,9801.001370
232.519748,114.855485,172.283227,9877.571693
232.522269,114.855485,114.855485,9839.286531
232.524791,-0.000000,172.283227,9915.856854
232.527313,19.142581,153.140646,9781.858789
232.529835,76.570323,114.855485,9839.286531
232.532356,19.142581,114.855485,9934.999435
232.534878,76.570323,172.283227,9858.429112
232.537400,19.142581,191.425808,9858.429112
232.539922,76.570323,210.568389,9839.286531
232.542443,76.570323,210.568389,9762.716208
232.544965,76.570323,172.283227,9858.429112
232.547487,76.570323,114.855485,9858.429112
232.550009,114.855485,210.568389,9858.429112
232.552530,76.570323,210.568389,9877.571693
232.555052,19.142581,248.853550,9896.714274
232.557574,76.570323,210.568389,9820.143950
232.560096,-57.427742,114.855485,9915.856854
232.562617,114.855485,133.998066,9858.429112
232.565139,76.570323,172.283227,9896.714274
232.567661,38.285162,133.998066,9762.716208
232.570182,76.570323,210.568389,9820.143950
232.572704,95.712904,114.855485,9896.714274
232.575226,19.142581,153.140646,9781.858789
232.577748,57.427742,114.855485,9896.714274
232.580269,-0.000000,191.425808,9915.856854
232.582791,95.712904,114.855485,9801.001370
232.585313,95.712904,95.712904,9801.001370
232.587835,95.712904,172.283227,9858.429112
232.590356,57.427742,114.855485,9839.286531
232.592878,19.142581,210.568389,9820.143950
232.595400,114.855485,210.568389,9820.143950
232.597922,76.570323,172.283227,9877.571693
232.600443,133.998066,95.712904,9896.714274
232.602965,38.285162,114.855485,9724.431046
232.605487,-19.142581,248.853550,9801.001370
232.608009,76.570323,172.283227,9858.429112
232.610530,76.570323,114.855485,9801.001370
232.613052,114.855485,114.855485,9801.001370
232.615574,95.712904,133.998066,9915.856854
232.618070,76.570323,172.283227,9762.716208
232.620566,19.142581,172.283227,9839.286531
232.623062,76.570323,210.568389,9820.143950
232.625558,114.855485,114.855485,9820.143950
232.628053,57.427742,191.425808,9762.716208
232.630549,19.142581,153.140646,9839.286531
232.633045,76.570323,114.855485,9762.716208
232.635541,76.570323,133.998066,9915.856854
232.638037,57.427742,248.853550,9934.999435
232.640533,19.142581,153.140646,9820.143950
232.643029,19.142581,191.425808,9820.143950
232.645525,95.712904,114.855485,9877.571693
232.648021,76.570323,153.140646,9839.286531
232.650517,76.570323,114.855485,9820.143950
232.653013,19.142581,95.712904,9877.571693
232.655509,76.570323,191.425808,9877.571693
232.658005,57.427742,229.710970,9820.143950
232.660501,-19.142581,153.140646,9896.714274
232.662997,76.570323,210.568389,9801.001370
232.665493,57.427742,191.425808,9934.999435
232.667989,76.570323,153.140646,9820.143950
232.670485,38.285162,229.710970,9801.001370
232.672981,95.712904,172.283227,9877.571693
232.675476,133.998066,210.568389,9877.571693
232.677972,114.855485,114.855485,9839.286531
232.680468,76.570323,172.283227,9877.571693
232.682964,19.142581,153.140646,9858.429112
232.685460,133.998066,229.710970,9820.143950
232.687956,76.570323,114.855485,9820.143950
232.690452,76.570323,172.283227,9858.429112
232.692948,153.140646,95.712904,9896.714274
232.695444,57.427742,210.568389,9858.429112
232.697940,95.712904,210.568389,9839.286531
232.700436,19.142581,172.283227,9839.286531
232.702932,133.998066,172.283227,9839.286531
232.705428,95.712904,114.855485,9877.571693
232.707924,76.570323,172.283227,9820.143950
232.710420,76.570323,114.855485,9762.716208
232.712916,19.142581,248.853550,9915.856854
232.715412,19.142581,133.998066,9896.714274
232.717918,19.142581,153.140646,9896.714274
232.720425,76.570323,172.283227,9877.571693
232.722931,76.570323,191.425808,9858.429112
232.725438,76.570323,114.855485,9839.286531
232.727944,19.142581,153.140646,9820.143950
232.730451,38.285162,133.998066,9820.143950
232.732957,57.427742,114.855485,9915.856854
232.735464,95.712904,114.855485,9762.716208
232.737970,76.570323,172.283227,9820.143950
232.740477,153.140646,114.855485,9896.714274
232.742983,133.998066,153.140646,9858.429112
232.745490,95.712904,210.568389,9877.571693
232.747996,19.142581,172.283227,9820.143950
232.750503,95.712904,210.568389,9762.716208
232.753009,57.427742,133.998066,9934.999435
232.755516,38.285162,133.998066,9934.999435
232.758023,57.427742,114.855485,9896.714274
232.760529,95.712904,153.140646,9877.571693
232.763036,95.712904,172.283227,9858.429112
232.765542,76.570323,210.568389,9762.716208
232.768049,19.142581,153.140646,9839.286531
232.770555,114.855485,153.140646,9858.429112
232.773062,114.855485,114.855485,9820.143950
232.775568,19.142581,153.140646,9839.286531
232.778075,76.570323,172.283227,9820.143950
232.780581,95.712904,172.283227,9877.571693
232.783088,76.570323,210.568389,9858.429112
232.785594,19.142581,172.283227,9877.571693
232.788101,19.142581,153.140646,9858.429112
232.790607,114.855485,191.425808,9820.143950
232.793114,76.570323,153.140646,9839.286531
232.795620,76.570323,153.140646,9801.001370
232.798127,19.142581,191.425808,9858.429112
232.800633,76.570323,191.425808,9820.143950
232.803140,95.712904,133.998066,9877.571693
232.805646,76.570323,153.140646,9877.571693
232.808153,95.712904,172.283227,9877.571693
232.810660,114.855485,114.855485,9801.001370
232.813166,76.570323,191.425808,9839.286531
232.815673,19.142581,133.998066,9896.714274
232.818157,19.142581,153.140646,9896.714274
232.820642,76.570323,172.283227,9877.571693
232.823127,114.855485,172.283227,9858.429112
232.825611,19.142581,133.998066,9839.286531
232.828096,76.570323,210.568389,9858.429112
232.830581,76.570323,114.855485,9839.286531
232.833065,38.285162,133.998066,9858.429112
232.835550,57.427742,95.712904,9839.286531
232.838035,19.142581,153.140646,9896.714274
232.840519,-0.000000,114.855485,9896.714274
232.843004,57.427742,95.712904,9896.714274
232.845489,76.570323,210.568389,9877.571693
232.847974,76.570323,172.283227,9762.716208
232.850458,76.570323,172.283227,9858.429112
232.852943,133.998066,133.998066,9915.856854
232.855428,76.570323,114.855485,9858.429112
232.857912,19.142581,153.140646,9858.429112
232.860397,76.570323,229.710970,9762.716208
232.862882,76.570323,114.855485,9877.571693
232.865366,57.427742,114.855485,9839.286531
232.867851,76.570323,229.710970,9877.571693
232.870336,19.142581,267.996131,9781.858789
232.872821,57.427742,287.138712,9801.001370
232.875305,76.570323,191.425808,9877.571693
232.877790,114.855485,153.140646,9877.571693
232.880275,57.427742,287.138712,9896.714274
232.882759,19.142581,172.283227,9839.286531
232.885244,19.142581,153.140646,9896.714274
232.887729,19.142581,172.283227,9858.429112
232.890213,57.427742,153.140646,9934.999435
232.892698,76.570323,210.568389,9877.571693
232.895183,95.712904,191.425808,9877.571693
232.897667,19.142581,191.425808,9877.571693
232.900152,19.142581,153.140646,9801.001370
232.902637,76.570323,114.855485,9877.571693
232.905122,19.142581,153.140646,9896.714274
232.907606,114.855485,114.855485,9820.143950
232.910091,57.427742,114.855485,9801.001370
232.912576,76.570323,210.568389,9858.429112
232.915060,76.570323,114.855485,9877.571693
232.917559,19.142581,172.283227,9839.286531
232.920058,19.142581,191.425808,9781.858789
232.922556,76.570323,229.710970,9858.429112
232.925055,57.427742,95.712904,9896.714274
232.927554,114.855485,210.568389,9877.571693
232.930052,133.998066,191.425808,9858.429112
232.932551,76.570323,172.283227,9839.286531
232.935050,114.855485,172.283227,9801.001370
232.937548,19.142581,191.425808,9801.001370
232.940047,114.855485,114.855485,9839.286531
232.942546,114.855485,153.140646,9877.571693
232.945044,76.570323,172.283227,9820.143950
232.947543,19.142581,153.140646,9801.001370
232.950042,57.427742,191.425808,9877.571693
232.952540,19.142581,172.283227,9801.001370
232.955039,76.570323,114.855485,9858.429112
232.957538,57.427742,114.855485,9896.714274
232.960036,19.142581,210.568389,9839.286531
232.962535,76.570323,229.710970,9820.143950
232.965034,76.570323,172.283227,9762.716208
232.967532,76.570323,114.855485,9762.716208
232.970031,95.712904,172.283227,9820.143950
232.972530,95.712904,210.568389,9858.429112
232.975028,38.285162,114.855485,9896.714274
232.977527,19.142581,153.140646,9801.001370
232.980026,114.855485,172.283227,9839.286531
232.982524,76.570323,114.855485,9820.143950
232.985023,-0.000000,172.283227,9858.429112
232.987522,76.570323,172.283227,9877.571693
232.990020,19.142581,153.140646,9839.286531
232.992519,57.427742,114.855485,9781.858789
232.995018,19.142581,114.855485,9934.999435
232.997516,38.285162,191.425808,9877.571693
233.000015,19.142581,191.425808,9896.714274
233.002514,19.142581,172.283227,9839.286531
233.005012,76.570323,114.855485,9801.001370
233.007511,57.427742,95.712904,9896.714274
233.010010,19.142581,133.998066,9896.714274
233.012508,19.142581,191.425808,9801.001370
233.015007,19.142581,172.283227,9820.143950
233.017517,114.855485,210.568389,9858.429112
233.020028,76.570323,210.568389,9877.571693
233.022538,19.142581,191.425808,9801.001370
233.025049,76.570323,210.568389,9820.143950
233.027559,95.712904,133.998066,9934.999435
233.030070,57.427742,133.998066,9877.571693
233.032580,114.855485,172.283227,9858.429112
233.035090,19.142581,210.568389,9877.571693
233.037601,19.142581,248.853550,9839.286531
233.040111,19.142581,191.425808,9820.143950
233.042622,95.712904,114.855485,9877.571693
233.045132,57.427742,172.283227,9896.714274
233.047642,95.712904,191.425808,9820.143950
233.050153,19.142581,133.998066,9781.858789
233.052663,76.570323,153.140646,9858.429112
233.055174,-0.000000,191.425808,9839.286531
233.057684,19.142581,172.283227,9896.714274
233.060195,57.427742,95.712904,9858.429112
233.062705,76.570323,210.568389,9839.286531
233.065215,76.570323,172.283227,9820.143950
233.067726,114.855485,95.712904,9858.429112
233.070236,95.712904,133.998066,9934.999435
233.072747,57.427742,95.712904,9896.714274
233.075257,114.855485,114.855485,9839.286531
233.077767,76.570323,153.140646,9858.429112
233.080278,95.712904,229.710970,9801.001370
233.082788,76.570323,172.283227,9858.429112
233.085299,133.998066,172.283227,9820.143950
233.087809,76.570323,210.568389,9801.001370
233.090319,76.570323,172.283227,9858.429112
233.092830,57.427742,114.855485,9801.001370
233.095340,76.570323,172.283227,9839.286531
233.097851,76.570323,114.855485,9877.571693
233.100361,76.570323,210.568389,9762.716208
233.102872,19.142581,191.425808,9839.286531
233.105382,57.427742,153.140646,9877.571693
233.107892,19.142581,114.855485,9820.143950
233.110403,76.570323,153.140646,9858.429112
233.112913,-19.142581,133.998066,9896.714274
233.115424,76.570323,114.855485,9858.429112
233.117943,19.142581,133.998066,9839.286531
233.120463,57.427742,191.425808,9820.143950
233.122983,95.712904,210.568389,9839.286531
233.125503,76.570323,229.710970,9801.001370
233.128022,57.427742,133.998066,9934.999435
233.130542,76.570323,114.855485,9820.143950
233.133062,57.427742,95.712904,9781.858789
233.135582,76.570323,114.855485,9934.999435
233.138101,114.855485,114.855485,9839.286531
233.140621,76.570323,172.283227,9877.571693
233.143141,76.570323,229.710970,9801.001370
233.145661,76.570323,153.140646,9858.429112
233.148180,19.142581,153.140646,9801.001370
233.150700,-0.000000,133.998066,9858.429112
233.153220,76.570323,172.283227,9820.143950
233.155739,76.570323,172.283227,9858.429112
233.158259,19.142581,153.140646,9896.714274
233.160779,76.570323,172.283227,9858.429112
233.163299,76.570323,172.283227,9858.429112
233.165818,19.142581,172.283227,9801.001370
233.168338,76.570323,114.855485,9877.571693
233.170858,95.712904,114.855485,9839.286531
233.173378,19.142581,153.140646,9839.286531
233.175897,19.142581,133.998066,9801.001370
233.178417,19.142581,172.283227,9877.571693
233.180937,76.570323,153.140646,9820.143950
233.183457,76.570323,114.855485,9858.429112
233.185976,19.142581,210.568389,9877.571693
233.188496,76.570323,191.425808,9839.286531
233.191016,76.570323,172.283227,9820.143950
233.193536,114.855485,114.855485,9877.571693
233.196055,19.142581,133.998066,9801.001370
233.198575,19.142581,191.425808,9896.714274
233.201095,76.570323,172.283227,9858.429112
233.203615,57.427742,114.855485,9896.714274
233.206134,19.142581,153.140646,9801.001370
233.208654,19.142581,153.140646,9781.858789
233.211174,19.142581,153.140646,9896.714274
233.213694,38.285162,191.425808,9877.571693
233.216213,114.855485,172.283227,9839.286531
233.218736,57.427742,95.712904,9801.001370
233.221263,114.855485,95.712904,9801.001370
233.223791,76.570323,191.425808,9762.716208
233.226319,76.570323,172.283227,9877.571693
233.228846,153.140646,114.855485,9801.001370
233.231374,114.855485,95.712904,9801.001370
233.233902,57.427742,210.568389,9896.714274
233.236430,76.570323,114.855485,9820.143950
233.238957,19.142581,248.853550,9820.143950
233.241485,19.142581,248.853550,9915.856854
233.244013,76.570323,114.855485,9877.571693
233.246541,76.570323,114.855485,9858.429112
233.249068,76.570323,114.855485,9858.429112
233.251596,95.712904,153.140646,9762.716208
233.254124,76.570323,153.140646,9877.571693
233.256651,57.427742,114.855485,9934.999435
233.259179,95.712904,191.425808,9877.571693
233.261707,76.570323,153.140646,9839.286531
233.264235,76.570323,172.283227,9839.286531
233.266762,76.570323,172.283227,9820.143950
233.269290,19.142581,153.140646,9858.429112
233.271818,57.427742,153.140646,9877.571693
233.274345,38.285162,248.853550,9839.286531
233.276873,57.427742,95.712904,9839.286531
233.279401,57.427742,114.855485,9801.001370
233.281929,76.570323,172.283227,9762.716208
233.284456,76.570323,172.283227,9877.571693
233.286984,76.570323,76.570323,9896.714274
233.289512,114.855485,210.568389,9762.716208
233.292040,57.427742,95.712904,9896.714274
233.294567,76.570323,210.568389,9820.143950
233.297095,57.427742,153.140646,9934.999435
233.299623,19.142581,210.568389,9877.571693
233.302150,19.142581,210.568389,9915.856854
233.304678,76.570323,172.283227,9877.571693
233.307206,-19.142581,229.710970,9896.714274
233.309734,76.570323,114.855485,9858.429112
233.312261,133.998066,191.425808,9877.571693
233.314789,38.285162,210.568389,9896.714274
233.317317,76.570323,172.283227,9877.571693
233.319851,133.998066,172.283227,9820.143950
233.322385,57.427742,114.855485,9858.429112
233.324919,19.142581,133.998066,9801.001370
233.327454,76.570323,172.283227,9781.858789
233.329988,114.855485,229.710970,9877.571693
233.332522,57.427742,95.712904,9896.714274
233.335056,76.570323,172.283227,9762.716208
233.337591,19.142581,153.140646,9858.429112
233.340125,19.142581,153.140646,9820.143950
233.342659,57.427742,191.425808,9934.999435
233.345193,76.570323,114.855485,9820.143950
233.347728,133.998066,153.140646,9820.143950
233.350262,76.570323,172.283227,9762.716208
233.352796,76.570323,153.140646,9762.716208
233.355330,76.570323,172.283227,9820.143950
233.357864,76.570323,172.283227,9877.571693
233.360399,114.855485,248.853550,9915.856854
233.362933,38.285162,248.853550,9877.571693
233.365467,76.570323,153.140646,9877.571693
233.368001,76.570323,172.283227,9839.286531
233.370536,76.570323,210.568389,9877.571693
233.373070,114.855485,114.855485,9801.001370
233.375604,76.570323,210.568389,9839.286531
233.378138,19.142581,172.283227,9896.714274
233.380673,76.570323,172.283227,9877.571693
233.383207,76.570323,229.710970,9858.429112
233.385741,-0.000000,248.853550,9820.143950
233.388275,76.570323,210.568389,9839.286531
233.390810,114.855485,95.712904,9839.286531
233.393344,95.712904,133.998066,9877.571693
233.395878,95.712904,114.855485,9877.571693
233.398412,95.712904,210.568389,9820.143950
233.400946,76.570323,210.568389,9877.571693
233.403481,95.712904,248.853550,9934.999435
233.406015,95.712904,133.998066,9877.571693
233.408549,114.855485,114.855485,9858.429112
233.411083,76.570323,172.283227,9820.143950
233.413618,19.142581,248.853550,9801.001370
