#time,accel_x,accel_y,accel_z
262.017936,76.570323,133.998066,9705.288466
262.020521,133.998066,210.568389,9839.286531
262.023105,57.427742,191.425808,9973.284597
262.025690,38.285162,229.710970,9839.286531
262.028274,114.855485,133.998066,9934.999435
262.030859,172.283227,76.570323,10068.997501
262.033443,114.855485,153.140646,9934.999435
262.036148,57.427742,95.712904,9896.714274
262.038853,95.712904,76.570323,9915.856854
262.041557,57.427742,229.710970,9801.001370
262.044262,-19.142581,76.570323,9762.716208
262.046966,172.283227,229.710970,9915.856854
262.049671,-57.427742,153.140646,9781.858789
262.052376,-0.000000,172.283227,9724.431046
262.055080,114.855485,114.855485,9801.001370
262.057785,-19.142581,114.855485,9705.288466
262.060490,76.570323,172.283227,9762.716208
262.063194,133.998066,229.710970,9877.571693
262.065899,76.570323,114.855485,9762.716208
262.068603,95.712904,172.283227,9839.286531
262.071308,153.140646,210.568389,10011.569758
262.074013,57.427742,133.998066,9934.999435
262.076717,38.285162,172.283227,9915.856854
262.079422,57.427742,172.283227,9973.284597
262.082126,76.570323,172.283227,9858.429112
262.084831,114.855485,210.568389,9858.429112
262.087536,153.140646,210.568389,9915.856854
262.090240,76.570323,229.710970,9801.001370
262.092945,114.855485,191.425808,9934.999435
262.095650,19.142581,248.853550,9801.001370
262.098354,76.570323,210.568389,9762.716208
262.101059,76.570323,172.283227,9858.429112
262.103763,76.570323,210.568389,9762.716208
262.106468,95.712904,133.998066,9743.573627
262.109173,76.570323,210.568389,9858.429112
262.111877,19.142581,191.425808,9896.714274
262.114582,-38.285162,153.140646,9820.143950
262.117287,76.570323,114.855485,9801.001370
262.119991,114.855485,210.568389,9877.571693
262.122696,-19.142581,114.855485,9858.429112
262.125400,57.427742,95.712904,9801.001370
262.128105,19.142581,153.140646,9801.001370
262.130810,19.142581,172.283227,9801.001370
262.133514,76.570323,172.283227,9877.571693
262.136219,191.425808,172.283227,9858.429112
262.138923,114.855485,114.855485,9839.286531
262.141628,76.570323,191.425808,9877.571693
262.144349,57.427742,76.570323,9877.571693
262.147071,95.712904,95.712904,9896.714274
262.149792,76.570323,172.283227,9877.571693
262.152513,95.712904,191.425808,9934.999435
262.155235,76.570323,172.283227,9877.571693
262.157956,38.285162,114.855485,9915.856854
262.160677,19.142581,153.140646,9858.429112
262.163398,114.855485,133.998066,9877.571693
262.166120,19.142581,153.140646,9781.858789
262.168841,95.712904,133.998066,9743.573627
262.171562,38.285162,76.570323,9762.716208
262.174284,76.570323,133.998066,9781.858789
262.177005,76.570323,172.283227,9839.286531
262.179726,57.427742,95.712904,9801.001370
262.182448,76.570323,114.855485,9839.286531
262.185169,76.570323,172.283227,9877.571693
262.187890,19.142581,210.568389,9781.858789
262.190611,76.570323,153.140646,9801.001370
262.193333,57.427742,191.425808,9934.999435
262.196054,114.855485,114.855485,9858.429112
262.198775,38.285162,114.855485,9896.714274
262.201497,95.712904,153.140646,9934.999435
262.204218,153.140646,133.998066,9934.999435
262.206939,191.425808,210.568389,9877.571693
262.209661,76.570323,114.855485,9820.143950
262.212382,95.712904,229.710970,9820.143950
262.215103,57.427742,114.855485,9781.858789
262.217824,114.855485,76.570323,9896.714274
262.220546,76.570323,114.855485,9820.143950
262.223267,76.570323,114.855485,9839.286531
262.225988,19.142581,191.425808,9801.001370
262.228710,38.285162,114.855485,9915.856854
262.231431,19.142581,153.140646,9801.001370
262.234152,76.570323,153.140646,9781.858789
262.236873,114.855485,287.138712,9839.286531
262.239595,76.570323,114.855485,9801.001370
262.242316,57.427742,76.570323,9801.001370
262.245037,38.285162,76.570323,9820.143950
262.247759,76.570323,153.140646,9877.571693
262.250480,57.427742,229.710970,9839.286531
262.253182,57.427742,210.568389,9915.856854
262.255884,76.570323,210.568389,9858.429112
262.258586,76.570323,172.283227,9877.571693
262.261288,57.427742,114.855485,9820.143950
262.263991,95.712904,210.568389,9877.571693
262.266693,76.570323,172.283227,9839.286531
262.269395,76.570323,172.283227,9858.429112
262.272097,76.570323,210.568389,9820.143950
262.274799,95.712904,210.568389,9762.716208
262.277501,76.570323,133.998066,9896.714274
262.280203,38.285162,133.998066,9877.571693
262.282905,19.142581,133.998066,9858.429112
262.285607,76.570323,172.283227,9820.143950
262.288310,57.427742,95.712904,9781.858789
262.291012,76.570323,114.855485,9820.143950
262.293714,114.855485,153.140646,9820.143950
262.296416,76.570323,114.855485,9801.001370
262.299118,76.570323,210.568389,9820.143950
262.301820,76.570323,229.710970,9820.143950
262.304522,95.712904,210.568389,9762.716208
262.307224,76.570323,172.283227,9877.571693
262.309926,133.998066,153.140646,9877.571693
262.312629,76.570323,210.568389,9877.571693
262.315331,57.427742,287.138712,9858.429112
262.318033,57.427742,229.710970,9839.286531
262.320735,38.285162,248.853550,9858.429112
262.323437,19.142581,191.425808,9858.429112
262.326139,114.855485,191.425808,9762.716208
262.328841,95.712904,172.283227,9839.286531
262.331543,114.855485,114.855485,9801.001370
262.334245,19.142581,95.712904,9877.571693
262.336948,95.712904,76.570323,9915.856854
262.339650,38.285162,133.998066,9877.571693
262.342352,19.142581,153.140646,9781.858789
262.345054,76.570323,172.283227,9820.143950
262.347756,76.570323,114.855485,9839.286531
262.350458,76.570323,172.283227,9820.143950
262.353160,95.712904,172.283227,9839.286531
262.355862,114.855485,114.855485,9839.286531
262.358564,76.570323,153.140646,9839.286531
262.361241,95.712904,172.283227,9858.429112
262.363917,114.855485,172.283227,9877.571693
262.366593,114.855485,172.283227,9877.571693
262.369269,76.570323,153.140646,9820.143950
262.371945,114.855485,153.140646,9877.571693
262.374621,38.285162,133.998066,9877.571693
262.377297,114.855485,191.425808,9801.001370
262.379973,57.427742,153.140646,9934.999435
262.382649,76.570323,114.855485,9858.429112
262.385325,76.570323,172.283227,9858.429112
262.388002,114.855485,172.283227,9839.286531
262.390678,76.570323,172.283227,9820.143950
262.393354,19.142581,153.140646,9801.001370
262.396030,38.285162,153.140646,9820.143950
262.398706,76.570323,172.283227,9820.143950
262.401382,76.570323,210.568389,9820.143950
262.404058,95.712904,114.855485,9801.001370
262.406734,57.427742,95.712904,9839.286531
262.409410,19.142581,153.140646,9781.858789
262.412086,19.142581,153.140646,9896.714274
262.414762,114.855485,172.283227,9839.286531
262.417439,76.570323,153.140646,9839.286531
262.420115,76.570323,153.140646,9839.286531
262.422791,76.570323,153.140646,9858.429112
262.425467,19.142581,191.425808,9839.286531
262.428143,19.142581,248.853550,9801.001370
262.430819,76.570323,210.568389,9801.001370
262.433495,38.285162,114.855485,9915.856854
262.436171,57.427742,153.140646,9877.571693
262.438847,19.142581,191.425808,9896.714274
262.441523,19.142581,153.140646,9896.714274
262.444200,19.142581,172.283227,9801.001370
262.446876,76.570323,210.568389,9877.571693
262.449552,114.855485,229.710970,9877.571693
262.452228,76.570323,210.568389,9762.716208
262.454904,38.285162,114.855485,9724.431046
262.457580,76.570323,114.855485,9877.571693
262.460256,38.285162,76.570323,9858.429112
262.462932,-0.000000,76.570323,9877.571693
262.465608,76.570323,191.425808,9801.001370
262.468266,38.285162,210.568389,9915.856854
262.470916,-0.000000,153.140646,9839.286531
262.473567,76.570323,153.140646,9820.143950
262.476217,114.855485,114.855485,9801.001370
262.478868,76.570323,229.710970,9858.429112
262.481518,172.283227,210.568389,9896.714274
262.484169,76.570323,210.568389,9877.571693
262.486819,76.570323,172.283227,9801.001370
262.489470,114.855485,210.568389,9820.143950
262.492120,114.855485,114.855485,9820.143950
262.494770,114.855485,191.425808,9877.571693
262.497421,19.142581,191.425808,9801.001370
262.500071,114.855485,229.710970,9801.001370
262.502722,57.427742,248.853550,9877.571693
262.505372,153.140646,248.853550,9820.143950
262.508023,19.142581,153.140646,9896.714274
262.510673,19.142581,133.998066,9839.286531
262.513323,76.570323,153.140646,9781.858789
262.515974,-19.142581,210.568389,9724.431046
262.518624,19.142581,153.140646,9839.286531
262.521275,95.712904,210.568389,9858.429112
262.523925,114.855485,172.283227,9858.429112
262.526576,57.427742,210.568389,9877.571693
262.529226,114.855485,229.710970,9858.429112
262.531877,76.570323,172.283227,9820.143950
262.534527,76.570323,114.855485,9877.571693
262.537177,76.570323,172.283227,9858.429112
262.539828,76.570323,172.283227,9877.571693
262.542478,76.570323,229.710970,9877.571693
262.545129,76.570323,133.998066,9915.856854
262.547779,19.142581,191.425808,9896.714274
262.550430,76.570323,172.283227,9839.286531
262.553080,-0.000000,248.853550,9839.286531
262.555730,57.427742,95.712904,9839.286531
262.558381,95.712904,114.855485,9801.001370
262.561031,76.570323,210.568389,9839.286531
262.563682,57.427742,191.425808,9820.143950
262.566332,19.142581,191.425808,9801.001370
262.568983,76.570323,153.140646,9820.143950
262.571633,38.285162,76.570323,9820.143950
262.574261,19.142581,133.998066,9801.001370
262.576888,76.570323,172.283227,9858.429112
262.579515,95.712904,114.855485,9839.286531
262.582143,76.570323,153.140646,9858.429112
262.584770,76.570323,114.855485,9858.429112
262.587398,76.570323,114.855485,9858.429112
262.590025,76.570323,172.283227,9877.571693
262.592652,76.570323,210.568389,9877.571693
262.595280,57.427742,133.998066,9820.143950
262.597907,76.570323,172.283227,9858.429112
262.600535,76.570323,172.283227,9858.429112
262.603162,38.285162,114.855485,9896.714274
262.605790,38.285162,153.140646,9915.856854
262.608417,76.570323,172.283227,9858.429112
262.611044,76.570323,172.283227,9877.571693
262.613672,114.855485,210.568389,9801.001370
262.616299,76.570323,133.998066,9839.286531
262.618927,57.427742,153.140646,9839.286531
262.621554,76.570323,172.283227,9839.286531
262.624182,38.285162,133.998066,9762.716208
262.626809,114.855485,210.568389,9877.571693
262.629436,76.570323,114.855485,9877.571693
262.632064,19.142581,153.140646,9801.001370
262.634691,133.998066,172.283227,9839.286531
262.637319,76.570323,172.283227,9839.286531
262.639946,76.570323,210.568389,9858.429112
262.642573,95.712904,172.283227,9877.571693
262.645201,76.570323,172.283227,9839.286531
262.647828,57.427742,172.283227,9839.286531
262.650456,95.712904,153.140646,9858.429112
262.653083,19.142581,210.568389,9801.001370
262.655711,76.570323,153.140646,9762.716208
262.658338,57.427742,133.998066,9934.999435
262.660965,76.570323,229.710970,9858.429112
262.663593,76.570323,210.568389,9820.143950
262.666220,38.285162,172.283227,9915.856854
262.668848,19.142581,191.425808,9839.286531
262.671475,19.142581,153.140646,9896.714274
262.674102,76.570323,172.283227,9839.286531
262.676730,57.427742,95.712904,9839.286531
262.679203,76.570323,172.283227,9820.143950
262.681676,76.570323,210.568389,9839.286531
262.684149,57.427742,191.425808,9877.571693
262.686622,114.855485,210.568389,9858.429112
262.689095,76.570323,191.425808,9820.143950
262.691568,76.570323,191.425808,9762.716208
262.694041,114.855485,172.283227,9801.001370
262.696514,76.570323,153.140646,9762.716208
262.698987,133.998066,210.568389,9820.143950
262.701460,19.142581,153.140646,9801.001370
262.703933,76.570323,210.568389,9858.429112
262.706406,95.712904,95.712904,9801.001370
262.708879,76.570323,229.710970,9820.143950
262.711353,95.712904,172.283227,9781.858789
262.713826,19.142581,133.998066,9801.001370
262.716299,114.855485,172.283227,9801.001370
262.718772,57.427742,153.140646,9762.716208
262.721245,133.998066,153.140646,9820.143950
262.723718,19.142581,191.425808,9896.714274
262.726191,76.570323,210.568389,9858.429112
262.728664,57.427742,191.425808,9820.143950
262.731137,57.427742,95.712904,9896.714274
262.733610,19.142581,153.140646,9820.143950
262.736083,133.998066,114.855485,9858.429112
262.738556,76.570323,153.140646,9877.571693
262.741029,114.855485,133.998066,9743.573627
262.743502,76.570323,229.710970,9801.001370
262.745975,76.570323,191.425808,9839.286531
262.748448,-19.142581,172.283227,9858.429112
262.750921,114.855485,172.283227,9820.143950
262.753394,76.570323,114.855485,9858.429112
262.755867,19.142581,153.140646,9820.143950
262.758340,19.142581,153.140646,9781.858789
262.760813,76.570323,153.140646,9877.571693
262.763287,95.712904,114.855485,9839.286531
262.765760,133.998066,153.140646,9839.286531
262.768233,76.570323,191.425808,9877.571693
262.770706,76.570323,210.568389,9839.286531
262.773179,114.855485,114.855485,9801.001370
262.775652,76.570323,172.283227,9820.143950
262.778156,19.142581,133.998066,9858.429112
262.780661,114.855485,172.283227,9820.143950
262.783165,76.570323,114.855485,9762.716208
262.785670,76.570323,114.855485,9839.286531
262.788174,19.142581,153.140646,9801.001370
262.790679,19.142581,191.425808,9839.286531
262.793183,76.570323,153.140646,9877.571693
262.795688,76.570323,114.855485,9877.571693
262.798192,114.855485,191.425808,9762.716208
262.800697,57.427742,191.425808,9820.143950
262.803201,76.570323,172.283227,9877.571693
262.805706,114.855485,191.425808,9858.429112
262.808210,76.570323,172.283227,9896.714274
262.810715,19.142581,133.998066,9896.714274
262.813219,76.570323,229.710970,9839.286531
262.815724,133.998066,210.568389,9820.143950
262.818228,153.140646,229.710970,9934.999435
262.820733,76.570323,210.568389,9801.001370
262.823237,57.427742,114.855485,9896.714274
262.825742,19.142581,153.140646,9801.001370
262.828246,76.570323,210.568389,9820.143950
262.830751,19.142581,133.998066,9896.714274
262.833255,76.570323,172.283227,9781.858789
262.835760,76.570323,172.283227,9801.001370
262.838264,19.142581,210.568389,9858.429112
262.840769,76.570323,172.283227,9762.716208
262.843273,76.570323,153.140646,9820.143950
262.845778,114.855485,153.140646,9839.286531
262.848282,57.427742,114.855485,9858.429112
262.850787,76.570323,172.283227,9801.001370
262.853291,76.570323,229.710970,9820.143950
262.855796,76.570323,114.855485,9762.716208
262.858300,95.712904,172.283227,9839.286531
262.860805,38.285162,114.855485,9896.714274
262.863309,76.570323,172.283227,9858.429112
262.865814,76.570323,191.425808,9858.429112
262.868318,19.142581,153.140646,9896.714274
262.870823,114.855485,229.710970,9820.143950
262.873327,76.570323,153.140646,9801.001370
262.875832,38.285162,210.568389,9915.856854
262.878359,76.570323,172.283227,9877.571693
262.880887,76.570323,114.855485,9877.571693
262.883414,114.855485,114.855485,9820.143950
262.885941,76.570323,210.568389,9839.286531
262.888469,57.427742,191.425808,9877.571693
262.890996,76.570323,210.568389,9762.716208
262.893523,76.570323,210.568389,9820.143950
262.896051,76.570323,172.283227,9820.143950
262.898578,114.855485,210.568389,9762.716208
262.901105,114.855485,153.140646,9877.571693
262.903633,57.427742,133.998066,9934.999435
262.906160,76.570323,229.710970,9858.429112
262.908687,76.570323,210.568389,9858.429112
262.911215,76.570323,172.283227,9762.716208
262.913742,76.570323,210.568389,9839.286531
262.916270,19.142581,172.283227,9839.286531
262.918797,191.425808,153.140646,9762.716208
262.921324,38.285162,114.855485,9934.999435
262.923852,19.142581,133.998066,9781.858789
262.926379,57.427742,114.855485,9801.001370
262.928906,76.570323,210.568389,9877.571693
262.931434,76.570323,172.283227,9877.571693
262.933961,38.285162,210.568389,9915.856854
262.936488,114.855485,133.998066,9877.571693
262.939016,19.142581,153.140646,9839.286531
262.941543,-0.000000,172.283227,9896.714274
262.944070,57.427742,114.855485,9896.714274
262.946598,76.570323,114.855485,9934.999435
262.949125,38.285162,133.998066,9820.143950
262.951653,76.570323,114.855485,9801.001370
262.954180,19.142581,191.425808,9781.858789
262.956707,76.570323,172.283227,9801.001370
262.959235,114.855485,76.570323,9915.856854
262.961762,19.142581,153.140646,9896.714274
262.964289,19.142581,210.568389,9781.858789
262.966817,76.570323,172.283227,9820.143950
262.969344,95.712904,76.570323,9915.856854
262.971871,76.570323,153.140646,9839.286531
262.974399,114.855485,210.568389,9820.143950
262.976926,76.570323,210.568389,9858.429112
262.979465,38.285162,191.425808,9934.999435
262.982004,19.142581,133.998066,9839.286531
262.984543,19.142581,153.140646,9839.286531
262.987082,19.142581,153.140646,9839.286531
262.989621,57.427742,153.140646,9877.571693
262.992160,95.712904,172.283227,9877.571693
262.994698,95.712904,114.855485,9858.429112
262.997237,76.570323,153.140646,9839.286531
262.999776,114.855485,191.425808,9762.716208
263.002315,95.712904,133.998066,9934.999435
263.004854,57.427742,133.998066,9877.571693
263.007393,19.142581,172.283227,9801.001370
263.009932,19.142581,191.425808,9801.001370
263.012471,57.427742,172.283227,9877.571693
263.015010,76.570323,153.140646,9839.286531
263.017549,57.427742,133.998066,9934.999435
263.020088,76.570323,172.283227,9858.429112
263.022627,-19.142581,153.140646,9781.858789
263.025165,19.142581,191.425808,9896.714274
263.027704,153.140646,95.712904,9839.286531
263.030243,114.855485,114.855485,9877.571693
263.032782,38.285162,133.998066,9877.571693
263.035321,-38.285162,153.140646,9781.858789
263.037860,76.570323,210.568389,9858.429112
263.040399,114.855485,114.855485,9839.286531
263.042938,95.712904,210.568389,9858.429112
263.045477,76.570323,172.283227,9858.429112
263.048016,76.570323,210.568389,9820.143950
263.050555,19.142581,153.140646,9839.286531
263.053093,95.712904,95.712904,9896.714274
263.055632,76.570323,172.283227,9762.716208
263.058171,76.570323,172.283227,9820.143950
263.060710,19.142581,210.568389,9839.286531
263.063249,19.142581,153.140646,9858.429112
263.065788,76.570323,210.568389,9858.429112
263.068327,38.285162,76.570323,9877.571693
263.070866,133.998066,172.283227,9877.571693
263.073405,57.427742,133.998066,9934.999435
263.075944,76.570323,114.855485,9839.286531
263.078483,95.712904,114.855485,9801.001370
263.080936,76.570323,210.568389,9877.571693
263.083389,76.570323,210.568389,9877.571693
263.085842,57.427742,95.712904,9820.143950
263.088295,76.570323,153.140646,9896.714274
263.090748,76.570323,229.710970,9858.429112
263.093201,76.570323,172.283227,9877.571693
263.095654,114.855485,133.998066,9877.571693
263.098107,57.427742,95.712904,9896.714274
263.100560,19.142581,191.425808,9896.714274
263.103013,95.712904,114.855485,9801.001370
263.105466,76.570323,172.283227,9820.143950
263.107919,95.712904,210.568389,9820.143950
263.110372,76.570323,210.568389,9877.571693
263.112825,95.712904,172.283227,9934.999435
263.115279,19.142581,172.283227,9839.286531
263.117732,19.142581,133.998066,9858.429112
263.120185,76.570323,172.283227,9820.143950
263.122638,19.142581,153.140646,9896.714274
263.125091,76.570323,191.425808,9858.429112
263.127544,114.855485,191.425808,9858.429112
263.129997,114.855485,172.283227,9839.286531
263.132450,76.570323,114.855485,9877.571693
263.134903,76.570323,210.568389,9762.716208
263.137356,76.570323,114.855485,9801.001370
263.139809,57.427742,191.425808,9877.571693
263.142262,114.855485,210.568389,9877.571693
263.144715,114.855485,114.855485,9820.143950
263.147168,76.570323,172.283227,9839.286531
263.149622,57.427742,191.425808,9934.999435
263.152075,76.570323,172.283227,9801.001370
263.154528,114.855485,210.568389,9858.429112
263.156981,57.427742,153.140646,9762.716208
263.159434,95.712904,114.855485,9858.429112
263.161887,76.570323,172.283227,9877.571693
263.164340,95.712904,114.855485,9839.286531
263.166793,114.855485,191.425808,9801.001370
263.169246,19.142581,210.568389,9820.143950
263.171699,38.285162,172.283227,9896.714274
263.174152,38.285162,133.998066,9877.571693
263.176605,57.427742,133.998066,9934.999435
263.179091,57.427742,95.712904,9858.429112
263.181576,76.570323,114.855485,9820.143950
263.184061,133.998066,114.855485,9820.143950
263.186546,95.712904,172.283227,9877.571693
263.189031,191.425808,191.425808,9896.714274
263.191517,114.855485,153.140646,9877.571693
263.194002,76.570323,76.570323,9915.856854
263.196487,19.142581,248.853550,9896.714274
263.198972,57.427742,95.712904,9896.714274
263.201458,76.570323,114.855485,9877.571693
263.203943,57.427742,172.283227,9934.999435
263.206428,76.570323,153.140646,9877.571693
263.208913,19.142581,153.140646,9858.429112
263.211399,19.142581,153.140646,9801.001370
263.213884,19.142581,133.998066,9839.286531
263.216369,38.285162,133.998066,9858.429112
263.218854,76.570323,114.855485,9858.429112
263.221340,76.570323,172.283227,9877.571693
263.223825,114.855485,172.283227,9801.001370
263.226310,57.427742,114.855485,9896.714274
263.228795,76.570323,191.425808,9858.429112
263.231281,95.712904,191.425808,9934.999435
263.233766,19.142581,153.140646,9801.001370
263.236251,19.142581,191.425808,9820.143950
263.238736,76.570323,114.855485,9762.716208
263.241222,76.570323,191.425808,9839.286531
263.243707,76.570323,114.855485,9877.571693
263.246192,57.427742,114.855485,9839.286531
263.248677,76.570323,191.425808,9858.429112
263.251163,76.570323,229.710970,9839.286531
263.253648,76.570323,172.283227,9839.286531
263.256133,76.570323,114.855485,9762.716208
263.258618,95.712904,95.712904,9839.286531
263.261103,19.142581,191.425808,9801.001370
263.263589,114.855485,95.712904,9839.286531
263.266074,76.570323,172.283227,9877.571693
263.268559,19.142581,191.425808,9839.286531
263.271044,19.142581,153.140646,9896.714274
263.273530,76.570323,172.283227,9858.429112
263.276015,76.570323,172.283227,9820.143950
263.278525,57.427742,248.853550,9934.999435
263.281034,19.142581,133.998066,9781.858789
263.283544,38.285162,172.283227,9896.714274
263.286053,19.142581,172.283227,9858.429112
263.288563,38.285162,133.998066,9839.286531
263.291073,95.712904,210.568389,9877.571693
263.293582,76.570323,172.283227,9858.429112
263.296092,57.427742,229.710970,9896.714274
263.298601,38.285162,172.283227,9915.856854
263.301111,76.570323,191.425808,9762.716208
263.303620,57.427742,153.140646,9858.429112
263.306130,57.427742,153.140646,9877.571693
263.308640,76.570323,172.283227,9762.716208
263.311149,19.142581,191.425808,9781.858789
263.313659,76.570323,210.568389,9820.143950
263.316168,57.427742,210.568389,9781.858789
263.318678,57.427742,191.425808,9934.999435
263.321188,57.427742,114.855485,9820.143950
263.323697,76.570323,210.568389,9801.001370
263.326207,57.427742,114.855485,9858.429112
263.328716,76.570323,210.568389,9839.286531
263.331226,57.427742,153.140646,9877.571693
263.333736,19.142581,133.998066,9801.001370
263.336245,114.855485,76.570323,9915.856854
263.338755,76.570323,210.568389,9839.286531
263.341264,76.570323,172.283227,9839.286531
263.343774,133.998066,172.283227,9762.716208
263.346284,114.855485,114.855485,9820.143950
263.348793,19.142581,133.998066,9801.001370
263.351303,19.142581,191.425808,9896.714274
263.353812,76.570323,210.568389,9820.143950
263.356322,-0.000000,153.140646,9801.001370
263.358832,57.427742,95.712904,9858.429112
263.361341,57.427742,95.712904,9801.001370
263.363851,76.570323,76.570323,9724.431046
263.366360,133.998066,210.568389,9801.001370
263.368870,19.142581,153.140646,9896.714274
263.371380,76.570323,210.568389,9858.429112
263.373889,19.142581,191.425808,9801.001370
263.376399,76.570323,172.283227,9839.286531
263.378925,57.427742,114.855485,9781.858789
263.381452,95.712904,133.998066,9839.286531
263.383978,76.570323,172.283227,9839.286531
263.386504,76.570323,153.140646,9858.429112
263.389031,38.285162,133.998066,9801.001370
263.391557,19.142581,229.710970,9762.716208
263.394084,57.427742,133.998066,9820.143950
263.396610,153.140646,114.855485,9820.143950
263.399137,153.140646,153.140646,9877.571693
263.401663,19.142581,191.425808,9839.286531
263.404189,57.427742,153.140646,9934.999435
263.406716,153.140646,133.998066,9877.571693
263.409242,114.855485,95.712904,9839.286531
263.411769,76.570323,210.568389,9877.571693
263.414295,76.570323,229.710970,9762.716208
263.416822,114.855485,229.710970,9858.429112
263.419348,76.570323,172.283227,9858.429112
263.421874,153.140646,153.140646,9858.429112
263.424401,153.140646,114.855485,9839.286531
263.426927,76.570323,153.140646,9858.429112
263.429454,57.427742,133.998066,9934.999435
263.431980,-19.142581,133.998066,9896.714274
263.434507,76.570323,172.283227,9877.571693
263.437033,19.142581,153.140646,9801.001370
263.439559,76.570323,267.996131,9896.714274
263.442086,76.570323,210.568389,9801.001370
263.444612,19.142581,133.998066,9781.858789
263.447139,19.142581,210.568389,9801.001370
263.449665,57.427742,114.855485,9896.714274
263.452192,57.427742,95.712904,9801.001370
263.454718,38.285162,114.855485,9896.714274
263.457244,57.427742,133.998066,9877.571693
263.459771,57.427742,95.712904,9839.286531
263.462297,76.570323,153.140646,9858.429112
263.464824,76.570323,172.283227,9877.571693
263.467350,57.427742,95.712904,9839.286531
263.469877,19.142581,133.998066,9839.286531
263.472403,19.142581,191.425808,9839.286531
263.474929,76.570323,114.855485,9858.429112
263.477456,76.570323,114.855485,9877.571693
263.479998,133.998066,210.568389,9762.716208
263.482536,133.998066,172.283227,9839.286531
263.485075,76.570323,191.425808,9858.429112
263.487613,76.570323,172.283227,9820.143950
263.490152,133.998066,172.283227,9877.571693
263.492690,133.998066,153.140646,9839.286531
263.495228,133.998066,153.140646,9820.143950
263.497767,38.285162,76.570323,9762.716208
263.500305,114.855485,191.425808,9934.999435
263.502844,114.855485,133.998066,9934.999435
263.505382,38.285162,133.998066,9858.429112
263.507921,76.570323,210.568389,9858.429112
263.510459,38.285162,210.568389,9724.431046
263.512997,38.285162,229.710970,9915.856854
263.515536,76.570323,172.283227,9858.429112
263.518074,114.855485,210.568389,9762.716208
263.520613,38.285162,133.998066,9762.716208
263.523151,76.570323,172.283227,9858.429112
263.525690,-0.000000,248.853550,9896.714274
263.528228,76.570323,153.140646,9858.429112
263.530767,114.855485,153.140646,9820.143950
263.533305,19.142581,191.425808,9839.286531
263.535843,95.712904,114.855485,9743.573627
263.538382,57.427742,153.140646,9858.429112
263.540920,57.427742,95.712904,9781.858789
263.543459,76.570323,114.855485,9858.429112
263.545997,38.285162,153.140646,9934.999435
263.548536,57.427742,114.855485,9858.429112
263.551074,57.427742,95.712904,9896.714274
263.553612,19.142581,172.283227,9801.001370
263.556151,133.998066,95.712904,9762.716208
263.558689,76.570323,191.425808,9762.716208
263.561228,57.427742,114.855485,9801.001370
263.563766,57.427742,153.140646,9877.571693
263.566305,95.712904,172.283227,9858.429112
263.568843,76.570323,210.568389,9877.571693
263.571381,19.142581,153.140646,9801.001370
263.573920,19.142581,248.853550,9820.143950
263.576458,76.570323,210.568389,9820.143950
263.578997,114.855485,114.855485,9877.571693
263.581543,76.570323,172.283227,9820.143950
263.584089,114.855485,191.425808,9858.429112
263.586635,57.427742,153.140646,9877.571693
263.589182,19.142581,95.712904,9934.999435
263.591728,19.142581,133.998066,9896.714274
263.594274,38.285162,153.140646,9896.714274
263.596820,95.712904,153.140646,9839.286531
263.599366,19.142581,172.283227,9896.714274
263.601913,57.427742,95.712904,9839.286531
263.604459,95.712904,172.283227,9877.571693
263.607005,76.570323,133.998066,9839.286531
263.609551,38.285162,267.996131,9762.716208
263.612097,114.855485,114.855485,9762.716208
263.614644,19.142581,191.425808,9801.001370
263.617190,95.712904,191.425808,9877.571693
263.619736,76.570323,210.568389,9820.143950
263.622282,19.142581,133.998066,9801.001370
263.624828,76.570323,153.140646,9858.429112
263.627375,76.570323,210.568389,9820.143950
263.629921,57.427742,191.425808,9934.999435
263.632467,133.998066,191.425808,9820.143950
263.635013,95.712904,229.710970,9858.429112
263.637559,19.142581,248.853550,9781.858789
263.640106,114.855485,114.855485,9877.571693
263.642652,133.998066,172.283227,9820.143950
263.645198,76.570323,153.140646,9839.286531
263.647744,76.570323,172.283227,9877.571693
263.650290,76.570323,172.283227,9762.716208
263.652837,19.142581,191.425808,9858.429112
263.655383,95.712904,172.283227,9801.001370
263.657929,95.712904,133.998066,9934.999435
263.660475,76.570323,210.568389,9820.143950
263.663021,95.712904,114.855485,9858.429112
263.665568,19.142581,153.140646,9839.286531
263.668114,38.285162,172.283227,9915.856854
263.670660,76.570323,172.283227,9858.429112
263.673206,57.427742,95.712904,9839.286531
263.675752,19.142581,191.425808,9896.714274
263.678299,76.570323,210.568389,9820.143950
263.680845,76.570323,172.283227,9858.429112
263.683395,76.570323,229.710970,9801.001370
263.685945,114.855485,114.855485,9839.286531
263.688495,19.142581,210.568389,9858.429112
263.691045,57.427742,153.140646,9877.571693
263.693595,76.570323,191.425808,9877.571693
263.696146,19.142581,133.998066,9915.856854
263.698696,76.570323,248.853550,9839.286531
263.701246,76.570323,172.283227,9820.143950
263.703796,19.142581,191.425808,9839.286531
263.706346,19.142581,191.425808,9858.429112
263.708896,-19.142581,210.568389,9820.143950
263.711446,191.425808,153.140646,9896.714274
263.713997,76.570323,153.140646,9896.714274
263.716547,76.570323,210.568389,9839.286531
263.719097,95.712904,153.140646,9877.571693
263.721647,57.427742,114.855485,9896.714274
263.724197,76.570323,114.855485,9858.429112
263.726747,153.140646,114.855485,9839.286531
263.729297,19.142581,153.140646,9839.286531
263.731847,76.570323,210.568389,9877.571693
263.734398,19.142581,210.568389,9839.286531
263.736948,19.142581,133.998066,9781.858789
263.739498,19.142581,191.425808,9801.001370
263.742048,95.712904,153.140646,9820.143950
263.744598,19.142581,153.140646,9781.858789
263.747148,19.142581,172.283227,9762.716208
263.749698,38.285162,76.570323,9820.143950
263.752249,19.142581,133.998066,9801.001370
263.754799,133.998066,153.140646,9839.286531
263.757349,76.570323,172.283227,9858.429112
263.759899,95.712904,172.283227,9858.429112
263.762449,19.142581,210.568389,9839.286531
263.764999,76.570323,114.855485,9858.429112
263.767549,76.570323,114.855485,9820.143950
263.770099,38.285162,133.998066,9858.429112
263.772650,19.142581,191.425808,9781.858789
263.775200,76.570323,172.283227,9858.429112
263.777750,19.142581,153.140646,9858.429112
263.780300,153.140646,191.425808,9858.429112
263.782850,76.570323,172.283227,9839.286531
263.785403,19.142581,172.283227,9820.143950
263.787955,38.285162,248.853550,9877.571693
263.790508,76.570323,210.568389,9858.429112
263.793061,19.142581,153.140646,9858.429112
263.795613,19.142581,95.712904,9934.999435
263.798166,76.570323,172.283227,9801.001370
263.800718,114.855485,153.140646,9934.999435
263.803271,38.285162,95.712904,9858.429112
263.805824,133.998066,114.855485,9839.286531
263.808376,76.570323,210.568389,9858.429112
263.810929,153.140646,95.712904,9801.001370
263.813481,19.142581,191.425808,9801.001370
263.816034,57.427742,191.425808,9877.571693
263.818587,19.142581,172.283227,9858.429112
263.821139,114.855485,114.855485,9839.286531
263.823692,19.142581,153.140646,9858.429112
263.826244,114.855485,76.570323,9915.856854
263.828797,76.570323,172.283227,9896.714274
263.831350,76.570323,153.140646,9896.714274
263.833902,38.285162,210.568389,9896.714274
263.836455,153.140646,153.140646,9762.716208
263.839007,38.285162,172.283227,9915.856854
263.841560,76.570323,210.568389,9801.001370
263.844113,57.427742,114.855485,9801.001370
263.846665,57.427742,172.283227,9915.856854
263.849218,114.855485,114.855485,9877.571693
263.851770,114.855485,172.283227,9762.716208
263.854323,76.570323,172.283227,9820.143950
263.856876,19.142581,133.998066,9896.714274
263.859428,19.142581,133.998066,9801.001370
263.861981,19.142581,191.425808,9839.286531
263.864533,95.712904,76.570323,9896.714274
263.867086,19.142581,133.998066,9801.001370
263.869639,76.570323,229.710970,9762.716208
263.872191,76.570323,210.568389,9839.286531
263.874744,114.855485,172.283227,9858.429112
263.877296,133.998066,191.425808,9877.571693
263.879849,57.427742,153.140646,9762.716208
263.882402,76.570323,172.283227,9820.143950
263.884954,76.570323,114.855485,9839.286531
263.887507,76.570323,153.140646,9762.716208
263.890061,57.427742,114.855485,9896.714274
263.892614,76.570323,172.283227,9839.286531
263.895167,76.570323,172.283227,9820.143950
263.897720,76.570323,172.283227,9877.571693
263.900273,114.855485,210.568389,9762.716208
263.902826,76.570323,133.998066,9839.286531
263.905379,57.427742,133.998066,9877.571693
263.907932,76.570323,114.855485,9820.143950
263.910485,57.427742,114.855485,9896.714274
263.913039,57.427742,95.712904,9801.001370
263.915592,76.570323,191.425808,9877.571693
263.918145,76.570323,210.568389,9762.716208
263.920698,38.285162,133.998066,9820.143950
263.923251,114.855485,114.855485,9877.571693
263.925804,19.142581,210.568389,9839.286531
263.928357,76.570323,153.140646,9877.571693
263.930910,38.285162,133.998066,9877.571693
263.933463,19.142581,133.998066,9781.858789
263.936017,76.570323,172.283227,9877.571693
263.938570,114.855485,210.568389,9820.143950
263.941123,38.285162,38.285162,9820.143950
263.943676,76.570323,172.283227,9820.143950
263.946229,19.142581,191.425808,9801.001370
263.948782,76.570323,114.855485,9858.429112
263.951335,57.427742,114.855485,9781.858789
263.953888,114.855485,210.568389,9877.571693
263.956442,76.570323,172.283227,9839.286531
263.958995,114.855485,210.568389,9839.286531
263.961548,19.142581,133.998066,9858.429112
263.964101,114.855485,210.568389,9858.429112
263.966654,76.570323,172.283227,9762.716208
263.969207,153.140646,95.712904,9801.001370
263.971760,-19.142581,153.140646,9896.714274
263.974313,19.142581,133.998066,9896.714274
263.976866,95.712904,229.710970,9858.429112
263.979420,76.570323,287.138712,9839.286531
263.981973,114.855485,229.710970,9877.571693
263.984526,114.855485,114.855485,9820.143950
263.987079,114.855485,153.140646,9858.429112
263.989632,76.570323,172.283227,9839.286531
263.992185,95.712904,172.283227,9839.286531
263.994738,76.570323,114.855485,9877.571693
263.997291,19.142581,153.140646,9896.714274
263.999844,76.570323,210.568389,9858.429112
264.002397,76.570323,210.568389,9877.571693
264.004950,38.285162,172.283227,9915.856854
264.007503,114.855485,172.283227,9858.429112
264.010056,76.570323,210.568389,9877.571693
264.012609,95.712904,114.855485,9858.429112
264.015162,76.570323,210.568389,9858.429112
264.017715,19.142581,153.140646,9820.143950
264.020268,57.427742,229.710970,9896.714274
264.022821,76.570323,191.425808,9762.716208
264.025374,133.998066,210.568389,9762.716208
264.027927,76.570323,210.568389,9839.286531
264.030480,76.570323,172.283227,9762.716208
264.033033,95.712904,172.283227,9839.286531
264.035586,38.285162,172.283227,9896.714274
264.038139,76.570323,114.855485,9858.429112
264.040691,19.142581,133.998066,9801.001370
264.043244,76.570323,153.140646,9877.571693
264.045797,19.142581,191.425808,9858.429112
264.048350,76.570323,210.568389,9858.429112
264.050903,76.570323,114.855485,9820.143950
264.053456,19.142581,191.425808,9801.001370
264.056009,133.998066,210.568389,9820.143950
264.058562,38.285162,210.568389,9915.856854
264.061115,76.570323,210.568389,9877.571693
264.063668,19.142581,114.855485,9934.999435
264.066221,38.285162,172.283227,9877.571693
264.068774,133.998066,172.283227,9858.429112
264.071327,133.998066,172.283227,9858.429112
264.073880,57.427742,95.712904,9896.714274
264.076433,19.142581,95.712904,9934.999435
264.078986,19.142581,191.425808,9858.429112
264.081539,76.570323,191.425808,9820.143950
264.084092,133.998066,172.283227,9801.001370
264.086645,133.998066,153.140646,9801.001370
264.089198,57.427742,114.855485,9839.286531
264.091751,95.712904,114.855485,9839.286531
264.094303,19.142581,153.140646,9839.286531
264.096855,19.142581,133.998066,9896.714274
264.099408,57.427742,76.570323,9858.429112
264.101960,76.570323,210.568389,9877.571693
264.104512,57.427742,153.140646,9877.571693
264.107065,76.570323,210.568389,9858.429112
264.109617,38.285162,133.998066,9877.571693
264.112170,153.140646,95.712904,9858.429112
264.114722,76.570323,114.855485,9877.571693
264.117274,76.570323,153.140646,9877.571693
264.119827,19.142581,172.283227,9858.429112
264.122379,19.142581,133.998066,9896.714274
264.124931,38.285162,76.570323,9858.429112
264.127484,76.570323,210.568389,9839.286531
264.130036,76.570323,191.425808,9820.143950
264.132589,76.570323,172.283227,9839.286531
264.135141,76.570323,114.855485,9801.001370
264.137693,76.570323,172.283227,9877.571693
264.140246,133.998066,172.283227,9877.571693
264.142798,76.570323,172.283227,9839.286531
264.145350,19.142581,153.140646,9896.714274
264.147903,133.998066,153.140646,9858.429112
264.150455,114.855485,210.568389,9858.429112
264.153008,114.855485,210.568389,9743.573627
264.155560,95.712904,114.855485,9801.001370
264.158112,76.570323,172.283227,9839.286531
264.160665,76.570323,114.855485,9877.571693
264.163217,38.285162,114.855485,9877.571693
264.165769,38.285162,95.712904,9781.858789
264.168322,19.142581,153.140646,9801.001370
264.170874,76.570323,172.283227,9858.429112
264.173427,95.712904,114.855485,9877.571693
264.175979,133.998066,229.710970,9839.286531
264.178531,114.855485,153.140646,9762.716208
264.181084,57.427742,153.140646,9877.571693
264.183636,76.570323,172.283227,9858.429112
264.186188,114.855485,210.568389,9858.429112
264.188741,38.285162,76.570323,9839.286531
264.191293,76.570323,191.425808,9820.143950
264.193844,95.712904,210.568389,9801.001370
264.196396,76.570323,114.855485,9820.143950
264.198947,76.570323,229.710970,9877.571693
264.201499,38.285162,76.570323,9820.143950
264.204050,57.427742,172.283227,9896.714274
264.206601,76.570323,172.283227,9801.001370
264.209153,95.712904,191.425808,9934.999435
264.211704,19.142581,133.998066,9839.286531
264.214255,76.570323,191.425808,9877.571693
264.216807,95.712904,114.855485,9877.571693
264.219358,76.570323,172.283227,9877.571693
264.221909,19.142581,153.140646,9839.286531
264.224461,19.142581,95.712904,9762.716208
264.227012,114.855485,210.568389,9839.286531
264.229563,57.427742,114.855485,9801.001370
264.232115,19.142581,133.998066,9858.429112
264.234666,76.570323,153.140646,9839.286531
264.237217,95.712904,248.853550,9877.571693
264.239769,114.855485,172.283227,9877.571693
264.242320,19.142581,191.425808,9896.714274
264.244871,57.427742,153.140646,9934.999435
264.247423,76.570323,172.283227,9762.716208
264.249974,95.712904,114.855485,9896.714274
264.252525,114.855485,172.283227,9858.429112
264.255077,114.855485,114.855485,9820.143950
264.257628,19.142581,210.568389,9801.001370
264.260179,76.570323,153.140646,9858.429112
264.262731,76.570323,114.855485,9801.001370
264.265282,95.712904,114.855485,9820.143950
264.267834,19.142581,133.998066,9896.714274
264.270385,114.855485,172.283227,9858.429112
264.272936,114.855485,210.568389,9877.571693
264.275488,76.570323,133.998066,9839.286531
264.278039,76.570323,172.283227,9839.286531
264.280590,95.712904,153.140646,9934.999435
264.283142,114.855485,210.568389,9877.571693
264.285693,19.142581,153.140646,9896.714274
264.288244,95.712904,114.855485,9801.001370
264.290796,76.570323,210.568389,9858.429112
264.293347,114.855485,172.283227,9877.571693
264.295897,57.427742,114.855485,9801.001370
264.298447,57.427742,133.998066,9877.571693
264.300996,133.998066,114.855485,9820.143950
264.303546,76.570323,95.712904,9839.286531
264.306096,19.142581,133.998066,9781.858789
264.308646,114.855485,153.140646,9801.001370
264.311196,57.427742,76.570323,9820.143950
264.313746,95.712904,95.712904,9839.286531
264.316295,19.142581,133.998066,9896.714274
264.318845,19.142581,191.425808,9801.001370
264.321395,57.427742,191.425808,9934.999435
264.323945,57.427742,191.425808,9934.999435
264.326495,76.570323,172.283227,9839.286531
264.329045,19.142581,191.425808,9801.001370
264.331594,114.855485,210.568389,9839.286531
264.334144,57.427742,95.712904,9858.429112
264.336694,114.855485,57.427742,9781.858789
264.339244,76.570323,133.998066,9839.286531
264.341794,95.712904,114.855485,9877.571693
264.344343,19.142581,191.425808,9858.429112
264.346893,19.142581,191.425808,9801.001370
264.349443,57.427742,248.853550,9743.573627
264.351993,19.142581,191.425808,9781.858789
264.354543,57.427742,114.855485,9801.001370
264.357093,-19.142581,172.283227,9801.001370
264.359642,19.142581,133.998066,9781.858789
264.362192,19.142581,172.283227,9858.429112
264.364742,114.855485,133.998066,9896.714274
264.367292,76.570323,210.568389,9877.571693
264.369842,19.142581,191.425808,9781.858789
264.372392,19.142581,191.425808,9896.714274
264.374941,19.142581,133.998066,9801.001370
264.377491,76.570323,210.568389,9858.429112
264.380041,76.570323,114.855485,9820.143950
264.382591,57.427742,95.712904,9858.429112
264.385141,19.142581,248.853550,9801.001370
264.387691,19.142581,133.998066,9839.286531
264.390240,76.570323,229.710970,9762.716208
264.392790,38.285162,153.140646,9877.571693
264.395340,57.427742,95.712904,9858.429112
264.397830,76.570323,210.568389,9820.143950
264.400326,76.570323,229.710970,9858.429112
264.402823,19.142581,248.853550,9839.286531
264.405319,76.570323,210.568389,9801.001370
264.407815,76.570323,114.855485,9877.571693
264.410311,76.570323,210.568389,9877.571693
264.412807,19.142581,172.283227,9896.714274
264.415303,76.570323,172.283227,9762.716208
264.417800,76.570323,172.283227,9801.001370
264.420296,76.570323,153.140646,9839.286531
264.422792,133.998066,172.283227,9877.571693
264.425288,38.285162,210.568389,9954.142016
264.427784,76.570323,153.140646,9839.286531
264.430280,38.285162,210.568389,9839.286531
264.432777,76.570323,210.568389,9820.143950
264.435273,38.285162,133.998066,9801.001370
264.437769,19.142581,153.140646,9781.858789
264.440265,76.570323,153.140646,9858.429112
264.442761,38.285162,114.855485,9896.714274
264.445258,19.142581,210.568389,9781.858789
264.447754,57.427742,210.568389,9839.286531
264.450250,76.570323,172.283227,9839.286531
264.452746,95.712904,210.568389,9858.429112
264.455242,-19.142581,133.998066,9839.286531
264.457738,95.712904,172.283227,9858.429112
264.460235,19.142581,95.712904,9877.571693
264.462731,76.570323,114.855485,9877.571693
264.465227,133.998066,133.998066,9896.714274
264.467723,76.570323,210.568389,9801.001370
264.470219,95.712904,210.568389,9839.286531
264.472716,38.285162,248.853550,9820.143950
264.475212,19.142581,153.140646,9839.286531
264.477708,19.142581,172.283227,9858.429112
264.480204,19.142581,172.283227,9762.716208
264.482700,114.855485,95.712904,9839.286531
264.485196,76.570323,76.570323,9915.856854
264.487693,76.570323,191.425808,9877.571693
264.490189,76.570323,172.283227,9877.571693
264.492685,76.570323,172.283227,9820.143950
264.495181,76.570323,172.283227,9801.001370
264.497688,76.570323,172.283227,9762.716208
264.500196,95.712904,114.855485,9820.143950
264.502703,114.855485,76.570323,9915.856854
264.505210,19.142581,172.283227,9820.143950
264.507718,76.570323,191.425808,9839.286531
264.510225,114.855485,210.568389,9877.571693
264.512732,114.855485,114.855485,9858.429112
264.515240,133.998066,210.568389,9820.143950
264.517747,95.712904,114.855485,9858.429112
264.520254,76.570323,210.568389,9820.143950
264.522762,76.570323,153.140646,9877.571693
264.525269,57.427742,210.568389,9934.999435
264.527776,95.712904,191.425808,9877.571693
264.530283,114.855485,95.712904,9858.429112
264.532791,76.570323,153.140646,9839.286531
264.535298,76.570323,210.568389,9839.286531
264.537805,76.570323,172.283227,9858.429112
264.540313,76.570323,172.283227,9877.571693
264.542820,76.570323,114.855485,9877.571693
264.545327,153.140646,114.855485,9839.286531
264.547835,76.570323,210.568389,9858.429112
264.550342,57.427742,153.140646,9877.571693
264.552849,114.855485,114.855485,9858.429112
264.555357,95.712904,191.425808,9762.716208
264.557864,19.142581,153.140646,9801.001370
264.560371,19.142581,133.998066,9801.001370
264.562878,76.570323,172.283227,9820.143950
264.565386,76.570323,210.568389,9858.429112
264.567893,95.712904,229.710970,9801.001370
264.570400,95.712904,114.855485,9839.286531
264.572908,57.427742,172.283227,9877.571693
264.575415,76.570323,172.283227,9839.286531
264.577922,76.570323,172.283227,9801.001370
264.580430,38.285162,248.853550,9877.571693
264.582937,76.570323,210.568389,9820.143950
264.585444,76.570323,229.710970,9820.143950
264.587952,76.570323,172.283227,9839.286531
264.590459,114.855485,172.283227,9877.571693
264.592966,76.570323,114.855485,9877.571693
264.595474,76.570323,191.425808,9858.429112
264.597941,19.142581,172.283227,9801.001370
264.600409,114.855485,191.425808,9877.571693
264.602876,95.712904,172.283227,9839.286531
264.605344,76.570323,172.283227,9858.429112
264.607811,95.712904,95.712904,9896.714274
264.610279,57.427742,172.283227,9877.571693
264.612747,76.570323,210.568389,9839.286531
264.615214,57.427742,95.712904,9839.286531
264.617682,76.570323,210.568389,9858.429112
264.620149,76.570323,114.855485,9839.286531
264.622617,57.427742,172.283227,9934.999435
264.625085,76.570323,172.283227,9877.571693
264.627552,57.427742,287.138712,9839.286531
264.630020,76.570323,76.570323,9915.856854
264.632487,114.855485,133.998066,9915.856854
264.634955,76.570323,210.568389,9877.571693
264.637423,38.285162,76.570323,9820.143950
264.639890,95.712904,153.140646,9762.716208
264.642358,76.570323,229.710970,9820.143950
264.644825,76.570323,210.568389,9820.143950
264.647293,114.855485,210.568389,9820.143950
264.649760,38.285162,76.570323,9820.143950
264.652228,95.712904,133.998066,9877.571693
264.654696,19.142581,153.140646,9781.858789
264.657163,19.142581,114.855485,9858.429112
264.659631,76.570323,191.425808,9934.999435
264.662098,76.570323,210.568389,9877.571693
264.664566,57.427742,229.710970,9858.429112
264.667034,76.570323,153.140646,9877.571693
264.669501,76.570323,114.855485,9820.143950
264.671969,19.142581,153.140646,9896.714274
264.674436,19.142581,133.998066,9858.429112
264.676904,57.427742,114.855485,9839.286531
264.679372,76.570323,133.998066,9896.714274
264.681839,76.570323,229.710970,9877.571693
264.684307,57.427742,76.570323,9801.001370
264.686774,57.427742,95.712904,9801.001370
264.689242,114.855485,172.283227,9820.143950
264.691709,76.570323,172.283227,9858.429112
264.694177,38.285162,76.570323,9762.716208
264.696664,114.855485,114.855485,9801.001370
264.699151,76.570323,133.998066,9915.856854
264.701638,19.142581,153.140646,9896.714274
264.704125,76.570323,172.283227,9858.429112
264.706612,-19.142581,172.283227,9896.714274
264.709099,76.570323,210.568389,9858.429112
264.711586,76.570323,153.140646,9858.429112
264.714073,57.427742,172.283227,9858.429112
264.716560,57.427742,210.568389,9858.429112
264.719047,-0.000000,76.570323,9858.429112
264.721534,76.570323,210.568389,9858.429112
264.724021,38.285162,172.283227,9915.856854
264.726509,57.427742,114.855485,9896.714274
264.728996,133.998066,172.283227,9858.429112
264.731483,114.855485,114.855485,9762.716208
264.733970,95.712904,153.140646,9877.571693
264.736457,95.712904,133.998066,9934.999435
264.738944,95.712904,153.140646,9762.716208
264.741431,76.570323,172.283227,9839.286531
264.743918,19.142581,191.425808,9858.429112
264.746405,76.570323,210.568389,9762.716208
264.748892,76.570323,229.710970,9820.143950
264.751379,95.712904,210.568389,9820.143950
264.753866,19.142581,133.998066,9896.714274
264.756353,114.855485,95.712904,9801.001370
264.758840,57.427742,172.283227,9839.286531
264.761327,133.998066,172.283227,9877.571693
264.763814,38.285162,153.140646,9915.856854
264.766301,57.427742,229.710970,9839.286531
264.768788,38.285162,76.570323,9877.571693
264.771275,57.427742,114.855485,9820.143950
264.773762,76.570323,210.568389,9877.571693
264.776249,76.570323,114.855485,9820.143950
264.778736,19.142581,133.998066,9896.714274
264.781223,76.570323,172.283227,9839.286531
264.783710,19.142581,153.140646,9820.143950
264.786197,133.998066,172.283227,9877.571693
264.788684,-19.142581,248.853550,9781.858789
264.791171,76.570323,191.425808,9858.429112
264.793658,57.427742,114.855485,9858.429112
264.796114,19.142581,153.140646,9839.286531
264.798570,57.427742,133.998066,9877.571693
264.801025,57.427742,133.998066,9858.429112
264.803481,57.427742,133.998066,9934.999435
264.805937,76.570323,229.710970,9801.001370
264.808392,114.855485,114.855485,9820.143950
264.810848,76.570323,153.140646,9877.571693
264.813303,114.855485,210.568389,9877.571693
264.815759,57.427742,191.425808,9762.716208
264.818215,95.712904,172.283227,9762.716208
264.820670,76.570323,114.855485,9877.571693
264.823126,114.855485,114.855485,9820.143950
264.825581,76.570323,191.425808,9839.286531
264.828037,57.427742,210.568389,9934.999435
264.830493,76.570323,210.568389,9877.571693
264.832948,19.142581,153.140646,9801.001370
264.835404,76.570323,172.283227,9762.716208
264.837859,19.142581,133.998066,9801.001370
264.840315,-0.000000,210.568389,9839.286531
264.842771,57.427742,114.855485,9896.714274
264.845226,76.570323,153.140646,9820.143950
264.847682,95.712904,114.855485,9820.143950
264.850137,95.712904,153.140646,9934.999435
264.852593,76.570323,153.140646,9839.286531
264.855049,76.570323,172.283227,9877.571693
264.857504,76.570323,153.140646,9877.571693
264.859960,76.570323,114.855485,9820.143950
264.862416,76.570323,114.855485,9877.571693
264.864871,38.285162,133.998066,9820.143950
264.867327,76.570323,114.855485,9858.429112
264.869782,76.570323,210.568389,9801.001370
264.872238,114.855485,172.283227,9858.429112
264.874694,95.712904,133.998066,9877.571693
264.877149,57.427742,191.425808,9877.571693
264.879605,76.570323,210.568389,9877.571693
264.882060,95.712904,172.283227,9877.571693
264.884516,19.142581,191.425808,9801.001370
264.886972,114.855485,114.855485,9820.143950
264.889427,76.570323,210.568389,9877.571693
264.891883,19.142581,191.425808,9781.858789
264.894362,95.712904,114.855485,9820.143950
264.896841,133.998066,172.283227,9762.716208
264.899320,57.427742,153.140646,9934.999435
264.901799,19.142581,191.425808,9801.001370
264.904278,76.570323,153.140646,9801.001370
264.906757,19.142581,153.140646,9858.429112
264.909236,19.142581,191.425808,9801.001370
264.911715,133.998066,210.568389,9877.571693
264.914194,57.427742,95.712904,9839.286531
264.916673,76.570323,172.283227,9820.143950
264.919152,95.712904,210.568389,9858.429112
264.921631,76.570323,229.710970,9877.571693
264.924110,-19.142581,153.140646,9839.286531
264.926589,-0.000000,114.855485,9915.856854
264.929068,76.570323,114.855485,9877.571693
264.931548,76.570323,114.855485,9839.286531
264.934027,76.570323,133.998066,9896.714274
264.936506,95.712904,153.140646,9934.999435
264.938985,76.570323,172.283227,9858.429112
264.941464,76.570323,153.140646,9801.001370
264.943943,76.570323,172.283227,9820.143950
264.946422,76.570323,114.855485,9801.001370
264.948901,114.855485,153.140646,9877.571693
264.951380,38.285162,133.998066,9839.286531
264.953859,57.427742,153.140646,9934.999435
264.956338,153.140646,76.570323,9820.143950
264.958817,76.570323,191.425808,9877.571693
264.961296,19.142581,172.283227,9839.286531
264.963775,76.570323,191.425808,9820.143950
264.966254,76.570323,172.283227,9877.571693
264.968733,95.712904,210.568389,9762.716208
264.971212,19.142581,133.998066,9896.714274
264.973691,76.570323,229.710970,9839.286531
264.976170,114.855485,114.855485,9820.143950
264.978649,76.570323,153.140646,9877.571693
264.981128,-57.427742,172.283227,9896.714274
264.983608,-0.000000,191.425808,9896.714274
264.986087,76.570323,210.568389,9877.571693
264.988566,76.570323,172.283227,9820.143950
264.991045,95.712904,172.283227,9877.571693
264.993542,38.285162,114.855485,9896.714274
264.996040,76.570323,153.140646,9820.143950
264.998538,114.855485,229.710970,9820.143950
265.001035,76.570323,172.283227,9858.429112
265.003533,153.140646,153.140646,9934.999435
265.006031,19.142581,133.998066,9801.001370
265.008528,76.570323,133.998066,9839.286531
265.011026,57.427742,114.855485,9839.286531
265.013524,76.570323,210.568389,9839.286531
265.016022,38.285162,210.568389,9915.856854
265.018519,19.142581,172.283227,9820.143950
265.021017,76.570323,153.140646,9762.716208
265.023515,19.142581,191.425808,9801.001370
265.026012,114.855485,114.855485,9820.143950
265.028510,114.855485,153.140646,9858.429112
265.031008,114.855485,210.568389,9877.571693
265.033505,19.142581,248.853550,9896.714274
265.036003,57.427742,153.140646,9743.573627
265.038501,76.570323,210.568389,9820.143950
265.040998,38.285162,153.140646,9915.856854
265.043496,76.570323,210.568389,9762.716208
265.045994,114.855485,153.140646,9839.286531
265.048491,76.570323,172.283227,9877.571693
265.050989,19.142581,153.140646,9820.143950
265.053487,95.712904,172.283227,9877.571693
265.055985,57.427742,153.140646,9877.571693
265.058482,38.285162,76.570323,9877.571693
265.060980,38.285162,210.568389,9915.856854
265.063478,57.427742,191.425808,9934.999435
265.065975,114.855485,95.712904,9839.286531
265.068473,114.855485,114.855485,9801.001370
265.070971,19.142581,133.998066,9839.286531
265.073468,76.570323,76.570323,9724.431046
265.075966,19.142581,153.140646,9839.286531
265.078464,95.712904,153.140646,9858.429112
265.080961,76.570323,229.710970,9820.143950
265.083459,95.712904,210.568389,9839.286531
265.085957,76.570323,172.283227,9877.571693
265.088454,76.570323,172.283227,9839.286531
265.090952,95.712904,114.855485,9820.143950
265.093465,19.142581,153.140646,9858.429112
265.095977,114.855485,172.283227,9801.001370
265.098490,38.285162,95.712904,9858.429112
265.101002,114.855485,172.283227,9858.429112
265.103515,153.140646,229.710970,9781.858789
265.106028,95.712904,210.568389,9820.143950
265.108540,114.855485,172.283227,9839.286531
265.111053,19.142581,133.998066,9896.714274
265.113565,38.285162,76.570323,9877.571693
265.116078,57.427742,133.998066,9934.999435
265.118591,38.285162,229.710970,9839.286531
265.121103,19.142581,191.425808,9801.001370
265.123616,57.427742,287.138712,9858.429112
265.126128,19.142581,153.140646,9781.858789
265.128641,114.855485,191.425808,9858.429112
265.131153,95.712904,153.140646,9877.571693
265.133666,133.998066,210.568389,9820.143950
265.136179,19.142581,210.568389,9839.286531
265.138691,38.285162,172.283227,9877.571693
265.141204,76.570323,210.568389,9877.571693
265.143716,114.855485,191.425808,9820.143950
265.146229,76.570323,114.855485,9820.143950
265.148741,19.142581,191.425808,9801.001370
265.151254,114.855485,114.855485,9839.286531
265.153767,76.570323,229.710970,9877.571693
265.156279,-38.285162,172.283227,9858.429112
265.158792,76.570323,210.568389,9839.286531
265.161304,76.570323,172.283227,9877.571693
265.163817,76.570323,114.855485,9877.571693
265.166330,76.570323,210.568389,9839.286531
265.168842,76.570323,172.283227,9877.571693
265.171355,114.855485,210.568389,9820.143950
265.173867,38.285162,76.570323,9877.571693
265.176380,114.855485,95.712904,9858.429112
265.178892,19.142581,210.568389,9801.001370
265.181405,76.570323,153.140646,9915.856854
265.183918,76.570323,114.855485,9820.143950
265.186430,153.140646,172.283227,9781.858789
265.188943,76.570323,172.283227,9762.716208
265.191455,76.570323,114.855485,9839.286531
265.193980,114.855485,133.998066,9915.856854
265.196504,19.142581,133.998066,9781.858789
265.199028,19.142581,248.853550,9820.143950
265.201553,57.427742,114.855485,9801.001370
265.204077,76.570323,153.140646,9762.716208
265.206601,19.142581,172.283227,9839.286531
265.209126,19.142581,248.853550,9839.286531
265.211650,76.570323,191.425808,9858.429112
265.214174,-0.000000,248.853550,9858.429112
265.216698,57.427742,210.568389,9801.001370
265.219223,57.427742,153.140646,9877.571693
265.221747,76.570323,172.283227,9839.286531
265.224271,95.712904,95.712904,9858.429112
265.226796,76.570323,172.283227,9839.286531
265.229320,76.570323,172.283227,9858.429112
265.231844,95.712904,95.712904,9896.714274
265.234369,57.427742,95.712904,9781.858789
265.236893,95.712904,153.140646,9934.999435
265.239417,19.142581,191.425808,9801.001370
265.241942,57.427742,95.712904,9839.286531
265.244466,57.427742,133.998066,9934.999435
265.246990,38.285162,153.140646,9858.429112
265.249515,95.712904,172.283227,9820.143950
265.252039,57.427742,153.140646,9762.716208
265.254563,153.140646,191.425808,9877.571693
265.257088,57.427742,114.855485,9839.286531
265.259612,-0.000000,210.568389,9724.431046
265.262136,19.142581,133.998066,9820.143950
265.264660,133.998066,172.283227,9877.571693
265.267185,76.570323,210.568389,9839.286531
265.269709,114.855485,210.568389,9839.286531
265.272233,133.998066,210.568389,9801.001370
265.274758,114.855485,172.283227,9877.571693
265.277282,38.285162,248.853550,9877.571693
265.279806,76.570323,210.568389,9820.143950
265.282331,76.570323,172.283227,9877.571693
265.284855,57.427742,95.712904,9839.286531
265.287379,153.140646,38.285162,9877.571693
265.289904,57.427742,114.855485,9820.143950
265.292428,76.570323,172.283227,9820.143950
265.294961,114.855485,114.855485,9858.429112
265.297495,57.427742,76.570323,9820.143950
265.300028,95.712904,229.710970,9820.143950
265.302562,76.570323,153.140646,9820.143950
265.305095,76.570323,172.283227,9820.143950
265.307628,95.712904,133.998066,9762.716208
265.310162,114.855485,114.855485,9839.286531
265.312695,57.427742,114.855485,9801.001370
265.315229,76.570323,172.283227,9896.714274
265.317762,114.855485,229.710970,9839.286531
265.320296,133.998066,153.140646,9839.286531
265.322829,114.855485,153.140646,9839.286531
265.325362,76.570323,76.570323,9896.714274
265.327896,76.570323,172.283227,9801.001370
265.330429,57.427742,153.140646,9877.571693
265.332963,76.570323,172.283227,9839.286531
265.335496,76.570323,172.283227,9839.286531
265.338030,95.712904,191.425808,9820.143950
265.340563,76.570323,210.568389,9839.286531
265.343096,95.712904,229.710970,9820.143950
265.345630,76.570323,229.710970,9762.716208
265.348163,76.570323,172.283227,9858.429112
265.350697,76.570323,114.855485,9858.429112
265.353230,57.427742,133.998066,9762.716208
265.355764,57.427742,172.283227,9877.571693
265.358297,38.285162,76.570323,9762.716208
265.360830,19.142581,248.853550,9896.714274
265.363364,114.855485,172.283227,9839.286531
265.365897,76.570323,114.855485,9762.716208
265.368431,95.712904,114.855485,9839.286531
265.370964,76.570323,191.425808,9858.429112
265.373497,76.570323,172.283227,9839.286531
265.376031,19.142581,172.283227,9858.429112
265.378564,76.570323,172.283227,9877.571693
265.381098,76.570323,210.568389,9877.571693
265.383631,76.570323,172.283227,9858.429112
265.386165,38.285162,114.855485,9724.431046
265.388698,76.570323,114.855485,9762.716208
265.391231,76.570323,114.855485,9801.001370
265.393765,114.855485,172.283227,9877.571693
265.396304,19.142581,172.283227,9839.286531
265.398845,76.570323,210.568389,9762.716208
265.401386,57.427742,172.283227,9934.999435
265.403926,57.427742,95.712904,9820.143950
265.406467,19.142581,191.425808,9781.858789
265.409008,76.570323,210.568389,9820.143950
265.411548,19.142581,133.998066,9896.714274
265.414089,38.285162,172.283227,9877.571693
265.416630,57.427742,114.855485,9839.286531
265.419170,57.427742,191.425808,9934.999435
265.421711,114.855485,153.140646,9858.429112
265.424251,95.712904,229.710970,9839.286531
265.426792,76.570323,210.568389,9839.286531
265.429333,76.570323,248.853550,9896.714274
265.431873,57.427742,114.855485,9896.714274
265.434414,76.570323,172.283227,9877.571693
265.436955,19.142581,172.283227,9839.286531
265.439495,19.142581,191.425808,9896.714274
265.442036,19.142581,153.140646,9801.001370
265.444577,76.570323,191.425808,9877.571693
265.447117,57.427742,210.568389,9934.999435
265.449658,76.570323,210.568389,9858.429112
265.452199,95.712904,210.568389,9801.001370
265.454739,95.712904,153.140646,9934.999435
265.457280,19.142581,114.855485,9877.571693
265.459820,19.142581,153.140646,9839.286531
265.462361,38.285162,133.998066,9820.143950
265.464902,57.427742,210.568389,9801.001370
265.467442,19.142581,133.998066,9896.714274
265.469983,76.570323,172.283227,9877.571693
265.472524,76.570323,210.568389,9820.143950
265.475064,19.142581,133.998066,9896.714274
265.477605,76.570323,210.568389,9858.429112
265.480146,38.285162,133.998066,9877.571693
265.482686,76.570323,210.568389,9820.143950
265.485227,114.855485,114.855485,9896.714274
265.487768,114.855485,172.283227,9820.143950
265.490308,133.998066,210.568389,9877.571693
265.492849,76.570323,153.140646,9820.143950
265.495390,76.570323,191.425808,9839.286531
265.497894,19.142581,153.140646,9820.143950
265.500399,114.855485,210.568389,9858.429112
265.502904,95.712904,210.568389,9762.716208
265.505409,95.712904,229.710970,9839.286531
265.507913,95.712904,172.283227,9877.571693
265.510418,76.570323,229.710970,9839.286531
265.512923,57.427742,114.855485,9858.429112
265.515428,114.855485,210.568389,9839.286531
265.517933,114.855485,172.283227,9858.429112
265.520437,19.142581,153.140646,9858.429112
265.522942,76.570323,210.568389,9877.571693
265.525447,76.570323,172.283227,9877.571693
265.527952,76.570323,172.283227,9820.143950
265.530457,76.570323,172.283227,9801.001370
265.532961,95.712904,172.283227,9858.429112
265.535466,76.570323,172.283227,9877.571693
265.537971,76.570323,172.283227,9858.429112
265.540476,19.142581,114.855485,9858.429112
265.542980,114.855485,114.855485,9839.286531
265.545485,76.570323,172.283227,9858.429112
265.547990,19.142581,153.140646,9858.429112
265.550495,76.570323,210.568389,9858.429112
265.553000,76.570323,114.855485,9762.716208
265.555504,19.142581,153.140646,9858.429112
265.558009,76.570323,114.855485,9877.571693
265.560514,38.285162,114.855485,9839.286531
265.563019,57.427742,95.712904,9839.286531
265.565524,114.855485,114.855485,9858.429112
265.568028,76.570323,114.855485,9820.143950
265.570533,114.855485,210.568389,9762.716208
265.573038,114.855485,229.710970,9877.571693
265.575543,95.712904,114.855485,9801.001370
265.578047,19.142581,133.998066,9781.858789
265.580552,114.855485,172.283227,9839.286531
265.583057,76.570323,172.283227,9820.143950
265.585562,76.570323,114.855485,9877.571693
265.588067,114.855485,114.855485,9877.571693
265.590571,76.570323,172.283227,9877.571693
265.593076,19.142581,153.140646,9896.714274
265.595581,19.142581,133.998066,9801.001370
265.598059,19.142581,172.283227,9801.001370
265.600536,57.427742,191.425808,9858.429112
265.603014,114.855485,191.425808,9858.429112
265.605492,133.998066,172.283227,9877.571693
265.607969,38.285162,248.853550,9839.286531
265.610447,19.142581,153.140646,9839.286531
265.612925,57.427742,172.283227,9858.429112
265.615403,76.570323,210.568389,9762.716208
265.617880,19.142581,191.425808,9839.286531
265.620358,114.855485,153.140646,9877.571693
265.622836,38.285162,133.998066,9839.286531
265.625313,19.142581,133.998066,9839.286531
265.627791,57.427742,153.140646,9934.999435
265.630269,95.712904,114.855485,9858.429112
265.632746,133.998066,114.855485,9839.286531
265.635224,114.855485,191.425808,9858.429112
265.637702,19.142581,210.568389,9858.429112
265.640179,19.142581,133.998066,9896.714274
265.642657,57.427742,114.855485,9858.429112
265.645135,57.427742,114.855485,9915.856854
265.647613,76.570323,172.283227,9877.571693
265.650090,76.570323,172.283227,9839.286531
265.652568,76.570323,172.283227,9858.429112
265.655046,76.570323,172.283227,9858.429112
265.657523,114.855485,172.283227,9820.143950
265.660001,57.427742,153.140646,9858.429112
265.662479,114.855485,133.998066,9896.714274
265.664956,76.570323,172.283227,9820.143950
265.667434,38.285162,153.140646,9877.571693
265.669912,57.427742,248.853550,9858.429112
265.672390,114.855485,153.140646,9762.716208
265.674867,114.855485,210.568389,9858.429112
265.677345,114.855485,229.710970,9839.286531
265.679823,19.142581,191.425808,9839.286531
265.682300,76.570323,153.140646,9896.714274
265.684778,76.570323,172.283227,9877.571693
265.687256,76.570323,153.140646,9858.429112
265.689733,76.570323,114.855485,9839.286531
265.692211,114.855485,210.568389,9801.001370
265.694689,95.712904,191.425808,9820.143950
265.697187,76.570323,153.140646,9801.001370
265.699684,76.570323,191.425808,9858.429112
265.702182,76.570323,114.855485,9877.571693
265.704680,76.570323,114.855485,9839.286531
265.707178,57.427742,172.283227,9934.999435
265.709675,114.855485,191.425808,9801.001370
265.712173,76.570323,172.283227,9877.571693
265.714671,76.570323,172.283227,9877.571693
265.717168,95.712904,172.283227,9762.716208
265.719666,76.570323,172.283227,9839.286531
265.722164,76.570323,172.283227,9839.286531
265.724662,133.998066,210.568389,9762.716208
265.727159,19.142581,172.283227,9801.001370
265.729657,19.142581,191.425808,9896.714274
265.732155,19.142581,153.140646,9801.001370
265.734653,38.285162,114.855485,9915.856854
265.737150,57.427742,172.283227,9858.429112
265.739648,38.285162,172.283227,9896.714274
265.742146,19.142581,248.853550,9801.001370
265.744644,57.427742,95.712904,9839.286531
265.747141,76.570323,114.855485,9858.429112
265.749639,76.570323,114.855485,9858.429112
265.752137,114.855485,172.283227,9839.286531
265.754635,57.427742,172.283227,9877.571693
265.757132,114.855485,210.568389,9858.429112
265.759630,38.285162,267.996131,9762.716208
265.762128,95.712904,287.138712,9839.286531
265.764626,133.998066,172.283227,9801.001370
265.767123,76.570323,172.283227,9858.429112
265.769621,76.570323,210.568389,9877.571693
265.772119,19.142581,248.853550,9839.286531
265.774617,57.427742,95.712904,9839.286531
265.777114,76.570323,153.140646,9877.571693
265.779612,19.142581,153.140646,9839.286531
265.782110,76.570323,133.998066,9896.714274
265.784608,76.570323,191.425808,9820.143950
265.787105,114.855485,210.568389,9934.999435
265.789603,114.855485,95.712904,9858.429112
265.792101,76.570323,191.425808,9877.571693
265.794599,76.570323,210.568389,9820.143950
265.797111,95.712904,133.998066,9915.856854
265.799624,19.142581,210.568389,9858.429112
265.802137,95.712904,172.283227,9820.143950
265.804650,76.570323,210.568389,9801.001370
265.807162,19.142581,210.568389,9896.714274
265.809675,76.570323,114.855485,9877.571693
265.812188,76.570323,114.855485,9877.571693
265.814701,19.142581,191.425808,9896.714274
265.817214,19.142581,153.140646,9820.143950
265.819726,76.570323,114.855485,9877.571693
265.822239,57.427742,191.425808,9858.429112
265.824752,19.142581,114.855485,9877.571693
265.827265,76.570323,172.283227,9858.429112
265.829777,76.570323,153.140646,9820.143950
265.832290,38.285162,76.570323,9801.001370
265.834803,38.285162,133.998066,9820.143950
265.837316,38.285162,172.283227,9896.714274
265.839829,76.570323,172.283227,9858.429112
265.842341,-19.142581,172.283227,9858.429112
265.844854,95.712904,114.855485,9896.714274
265.847367,19.142581,248.853550,9820.143950
265.849880,153.140646,114.855485,9839.286531
265.852392,76.570323,172.283227,9877.571693
265.854905,76.570323,153.140646,9877.571693
265.857418,19.142581,172.283227,9801.001370
265.859931,57.427742,114.855485,9839.286531
265.862444,114.855485,133.998066,9877.571693
265.864956,133.998066,114.855485,9801.001370
265.867469,114.855485,210.568389,9877.571693
265.869982,76.570323,229.710970,9801.001370
265.872495,95.712904,172.283227,9858.429112
265.875007,114.855485,210.568389,9934.999435
265.877520,95.712904,95.712904,9896.714274
265.880033,95.712904,191.425808,9877.571693
265.882546,76.570323,172.283227,9877.571693
265.885059,76.570323,210.568389,9820.143950
265.887571,114.855485,172.283227,9877.571693
265.890084,57.427742,114.855485,9781.858789
265.892597,76.570323,76.570323,9915.856854
265.895110,57.427742,172.283227,9839.286531
265.897635,19.142581,133.998066,9896.714274
265.900161,76.570323,172.283227,9839.286531
265.902686,76.570323,172.283227,9858.429112
265.905212,76.570323,172.283227,9934.999435
265.907737,38.285162,210.568389,9896.714274
265.910263,19.142581,153.140646,9858.429112
265.912788,19.142581,248.853550,9839.286531
265.915314,114.855485,172.283227,9820.143950
265.917839,76.570323,114.855485,9839.286531
265.920365,19.142581,172.283227,9858.429112
265.922890,57.427742,95.712904,9839.286531
265.925416,19.142581,133.998066,9839.286531
265.927941,19.142581,172.283227,9858.429112
265.930467,19.142581,153.140646,9801.001370
265.932992,57.427742,210.568389,9877.571693
265.935518,57.427742,95.712904,9801.001370
265.938043,57.427742,133.998066,9877.571693
265.940569,57.427742,95.712904,9896.714274
265.943094,114.855485,95.712904,9858.429112
265.945620,133.998066,210.568389,9877.571693
265.948145,76.570323,210.568389,9858.429112
265.950671,95.712904,114.855485,9858.429112
265.953196,76.570323,210.568389,9877.571693
265.955722,19.142581,114.855485,9762.716208
265.958247,76.570323,114.855485,9839.286531
265.960773,57.427742,191.425808,9877.571693
265.963298,57.427742,191.425808,9877.571693
265.965824,114.855485,114.855485,9820.143950
265.968349,57.427742,172.283227,9877.571693
265.970875,76.570323,153.140646,9877.571693
265.973401,76.570323,114.855485,9877.571693
265.975926,-0.000000,210.568389,9839.286531
265.978452,-19.142581,210.568389,9820.143950
265.980977,57.427742,153.140646,9877.571693
265.983503,76.570323,172.283227,9877.571693
265.986028,76.570323,229.710970,9858.429112
265.988554,114.855485,114.855485,9877.571693
265.991079,76.570323,172.283227,9820.143950
265.993605,133.998066,210.568389,9877.571693
265.996130,76.570323,114.855485,9877.571693
265.998627,76.570323,210.568389,9877.571693
266.001125,114.855485,172.283227,9820.143950
266.003622,38.285162,114.855485,9801.001370
266.006119,114.855485,172.283227,9934.999435
266.008617,19.142581,153.140646,9801.001370
266.011114,76.570323,172.283227,9877.571693
266.013611,133.998066,153.140646,9858.429112
266.016109,19.142581,153.140646,9896.714274
266.018606,76.570323,172.283227,9934.999435
266.021104,76.570323,210.568389,9858.429112
266.023601,95.712904,114.855485,9839.286531
266.026098,19.142581,172.283227,9839.286531
266.028596,114.855485,172.283227,9839.286531
266.031093,114.855485,114.855485,9801.001370
266.033590,114.855485,114.855485,9877.571693
266.036088,57.427742,95.712904,9801.001370
266.038585,19.142581,153.140646,9820.143950
266.041082,57.427742,191.425808,9934.999435
266.043580,76.570323,172.283227,9877.571693
266.046077,19.142581,191.425808,9801.001370
266.048574,95.712904,133.998066,9934.999435
266.051072,76.570323,153.140646,9839.286531
266.053569,57.427742,248.853550,9877.571693
266.056066,76.570323,114.855485,9839.286531
266.058564,133.998066,191.425808,9781.858789
266.061061,76.570323,229.710970,9820.143950
266.063558,19.142581,229.710970,9820.143950
266.066056,19.142581,153.140646,9896.714274
266.068553,95.712904,172.283227,9820.143950
266.071050,57.427742,95.712904,9839.286531
266.073548,57.427742,114.855485,9820.143950
266.076045,114.855485,114.855485,9858.429112
266.078542,19.142581,248.853550,9839.286531
266.081040,38.285162,210.568389,9915.856854
266.083537,57.427742,133.998066,9877.571693
266.086034,76.570323,153.140646,9839.286531
266.088532,76.570323,114.855485,9858.429112
266.091029,57.427742,95.712904,9839.286531
266.093526,114.855485,229.710970,9801.001370
266.096024,76.570323,172.283227,9820.143950
266.098538,57.427742,153.140646,9934.999435
266.101051,76.570323,153.140646,9820.143950
266.103565,76.570323,114.855485,9858.429112
266.106079,19.142581,191.425808,9839.286531
266.108593,38.285162,114.855485,9915.856854
266.111107,38.285162,76.570323,9877.571693
266.113620,19.142581,133.998066,9858.429112
266.116134,76.570323,172.283227,9839.286531
266.118648,19.142581,153.140646,9896.714274
266.121162,19.142581,191.425808,9896.714274
266.123676,114.855485,210.568389,9858.429112
266.126190,76.570323,114.855485,9839.286531
266.128703,19.142581,172.283227,9801.001370
266.131217,114.855485,133.998066,9877.571693
266.133731,57.427742,133.998066,9820.143950
266.136245,76.570323,114.855485,9839.286531
266.138759,76.570323,229.710970,9839.286531
266.141272,57.427742,172.283227,9934.999435
266.143786,76.570323,153.140646,9877.571693
266.146300,95.712904,210.568389,9820.143950
266.148814,19.142581,191.425808,9896.714274
266.151328,19.142581,133.998066,9896.714274
266.153842,95.712904,172.283227,9801.001370
266.156355,19.142581,191.425808,9858.429112
266.158869,76.570323,229.710970,9877.571693
266.161383,57.427742,153.140646,9934.999435
266.163897,95.712904,191.425808,9934.999435
266.166411,57.427742,95.712904,9858.429112
266.168924,76.570323,210.568389,9762.716208
266.171438,114.855485,114.855485,9820.143950
266.173952,57.427742,95.712904,9858.429112
266.176466,76.570323,114.855485,9839.286531
266.178980,76.570323,210.568389,9762.716208
266.181494,38.285162,153.140646,9877.571693
266.184007,57.427742,114.855485,9839.286531
266.186521,76.570323,172.283227,9839.286531
266.189035,114.855485,114.855485,9877.571693
266.191549,19.142581,191.425808,9801.001370
266.194063,-0.000000,153.140646,9801.001370
266.196576,95.712904,210.568389,9934.999435
266.199103,57.427742,153.140646,9858.429112
266.201629,57.427742,172.283227,9877.571693
266.204155,95.712904,210.568389,9839.286531
266.206681,57.427742,191.425808,9877.571693
266.209208,76.570323,114.855485,9858.429112
266.211734,19.142581,133.998066,9801.001370
266.214260,76.570323,114.855485,9820.143950
266.216787,95.712904,114.855485,9801.001370
266.219313,76.570323,114.855485,9858.429112
266.221839,19.142581,172.283227,9839.286531
266.224365,114.855485,153.140646,9820.143950
266.226892,76.570323,210.568389,9801.001370
266.229418,76.570323,172.283227,9858.429112
266.231944,19.142581,172.283227,9820.143950
266.234470,19.142581,191.425808,9839.286531
266.236997,76.570323,172.283227,9762.716208
266.239523,76.570323,76.570323,9781.858789
266.242049,95.712904,210.568389,9801.001370
266.244575,76.570323,210.568389,9839.286531
266.247102,19.142581,153.140646,9781.858789
266.249628,76.570323,191.425808,9858.429112
266.252154,76.570323,210.568389,9858.429112
266.254680,133.998066,172.283227,9839.286531
266.257207,19.142581,153.140646,9858.429112
266.259733,76.570323,172.283227,9820.143950
266.262259,114.855485,153.140646,9934.999435
266.264785,76.570323,210.568389,9877.571693
266.267312,95.712904,210.568389,9877.571693
266.269838,57.427742,133.998066,9858.429112
266.272364,57.427742,229.710970,9858.429112
266.274891,19.142581,133.998066,9839.286531
266.277417,57.427742,172.283227,9934.999435
266.279943,95.712904,191.425808,9839.286531
266.282469,57.427742,95.712904,9820.143950
266.284996,76.570323,210.568389,9839.286531
266.287522,76.570323,191.425808,9877.571693
266.290048,133.998066,191.425808,9877.571693
266.292574,95.712904,210.568389,9762.716208
266.295101,76.570323,210.568389,9858.429112
266.297627,19.142581,248.853550,9858.429112
266.300164,114.855485,210.568389,9877.571693
266.302701,76.570323,172.283227,9820.143950
266.305238,114.855485,76.570323,9915.856854
266.307775,57.427742,95.712904,9896.714274
266.310313,19.142581,191.425808,9839.286531
266.312850,57.427742,287.138712,9820.143950
266.315387,76.570323,248.853550,9781.858789
266.317924,133.998066,153.140646,9877.571693
266.320461,114.855485,38.285162,9896.714274
266.322998,76.570323,95.712904,9934.999435
266.325535,76.570323,153.140646,9762.716208
266.328073,57.427742,267.996131,9781.858789
266.330610,133.998066,229.710970,9762.716208
266.333147,76.570323,114.855485,9762.716208
266.335684,38.285162,38.285162,9877.571693
266.338221,38.285162,172.283227,9915.856854
266.340758,76.570323,229.710970,9801.001370
266.343295,76.570323,153.140646,9801.001370
266.345833,76.570323,172.283227,9877.571693
266.348370,57.427742,95.712904,9896.714274
266.350907,95.712904,133.998066,9934.999435
266.353444,114.855485,114.855485,9896.714274
266.355981,114.855485,191.425808,9934.999435
266.358518,76.570323,114.855485,9820.143950
266.361055,19.142581,133.998066,9858.429112
266.363593,38.285162,76.570323,9762.716208
266.366130,153.140646,95.712904,9820.143950
266.368667,76.570323,153.140646,9820.143950
266.371204,76.570323,210.568389,9762.716208
266.373741,76.570323,210.568389,9762.716208
266.376278,76.570323,153.140646,9858.429112
266.378815,-57.427742,133.998066,9839.286531
266.381353,57.427742,95.712904,9858.429112
266.383890,76.570323,114.855485,9839.286531
266.386427,114.855485,153.140646,9801.001370
266.388964,19.142581,133.998066,9896.714274
266.391501,76.570323,172.283227,9839.286531
266.394038,76.570323,114.855485,9877.571693
266.396575,95.712904,153.140646,9934.999435
266.399113,153.140646,153.140646,9934.999435
266.401624,114.855485,172.283227,9858.429112
266.404133,114.855485,172.283227,9877.571693
266.406642,76.570323,172.283227,9820.143950
266.409150,76.570323,114.855485,9858.429112
266.411659,57.427742,114.855485,9801.001370
266.414168,57.427742,153.140646,9877.571693
266.416676,38.285162,133.998066,9820.143950
266.419185,19.142581,153.140646,9801.001370
266.421694,19.142581,153.140646,9896.714274
266.424202,19.142581,191.425808,9781.858789
266.426711,76.570323,172.283227,9820.143950
266.429219,19.142581,153.140646,9820.143950
266.431728,19.142581,153.140646,9781.858789
266.434237,76.570323,153.140646,9820.143950
266.436745,114.855485,153.140646,9934.999435
266.439254,133.998066,210.568389,9877.571693
266.441763,38.285162,267.996131,9858.429112
266.444271,114.855485,172.283227,9820.143950
266.446780,114.855485,114.855485,9858.429112
266.449289,57.427742,95.712904,9896.714274
266.451797,-0.000000,153.140646,9858.429112
266.454306,114.855485,210.568389,9858.429112
266.456815,76.570323,229.710970,9877.571693
266.459323,38.285162,210.568389,9915.856854
266.461832,114.855485,210.568389,9762.716208
266.464340,133.998066,133.998066,9896.714274
266.466849,76.570323,172.283227,9801.001370
266.469358,19.142581,153.140646,9858.429112
266.471866,76.570323,210.568389,9820.143950
266.474375,57.427742,95.712904,9839.286531
266.476884,76.570323,172.283227,9820.143950
266.479392,76.570323,114.855485,9839.286531
266.481901,19.142581,191.425808,9839.286531
266.484410,76.570323,210.568389,9839.286531
266.486918,57.427742,229.710970,9820.143950
266.489427,57.427742,95.712904,9839.286531
266.491936,76.570323,172.283227,9858.429112
266.494444,38.285162,172.283227,9915.856854
266.496953,-19.142581,172.283227,9896.714274
266.499461,76.570323,133.998066,9896.714274
266.501985,57.427742,133.998066,9934.999435
266.504508,76.570323,114.855485,9820.143950
266.507031,114.855485,172.283227,9839.286531
266.509554,19.142581,191.425808,9801.001370
266.512077,76.570323,172.283227,9820.143950
266.514600,114.855485,210.568389,9839.286531
266.517123,76.570323,76.570323,9801.001370
266.519646,57.427742,114.855485,9801.001370
266.522169,114.855485,114.855485,9839.286531
266.524692,19.142581,210.568389,9801.001370
266.527215,133.998066,172.283227,9877.571693
266.529738,19.142581,153.140646,9896.714274
266.532261,76.570323,172.283227,9858.429112
266.534784,19.142581,172.283227,9858.429112
266.537307,76.570323,114.855485,9762.716208
266.539830,57.427742,95.712904,9896.714274
266.542353,76.570323,153.140646,9820.143950
266.544876,19.142581,153.140646,9896.714274
266.547399,38.285162,172.283227,9915.856854
266.549922,95.712904,114.855485,9839.286531
266.552445,153.140646,153.140646,9934.999435
266.554968,76.570323,114.855485,9877.571693
266.557491,19.142581,133.998066,9781.858789
266.560014,76.570323,172.283227,9820.143950
266.562537,95.712904,210.568389,9762.716208
266.565060,76.570323,172.283227,9858.429112
266.567583,76.570323,229.710970,9858.429112
266.570106,76.570323,210.568389,9839.286531
266.572629,-0.000000,133.998066,9896.714274
266.575152,95.712904,153.140646,9877.571693
266.577675,76.570323,114.855485,9839.286531
266.580198,19.142581,114.855485,9820.143950
266.582721,114.855485,114.855485,9858.429112
266.585245,76.570323,210.568389,9801.001370
266.587768,76.570323,172.283227,9820.143950
266.590291,191.425808,210.568389,9820.143950
266.592814,76.570323,172.283227,9820.143950
266.595337,38.285162,114.855485,9915.856854
266.597860,76.570323,172.283227,9877.571693
266.600383,-19.142581,133.998066,9801.001370
266.602917,114.855485,172.283227,9762.716208
266.605451,76.570323,191.425808,9877.571693
266.607986,133.998066,172.283227,9877.571693
266.610520,76.570323,153.140646,9839.286531
266.613055,19.142581,133.998066,9820.143950
266.615589,114.855485,172.283227,9820.143950
266.618123,95.712904,248.853550,9877.571693
266.620658,57.427742,153.140646,9877.571693
266.623192,57.427742,229.710970,9820.143950
266.625727,76.570323,210.568389,9877.571693
266.628261,57.427742,191.425808,9934.999435
266.630795,19.142581,153.140646,9839.286531
266.633330,19.142581,172.283227,9820.143950
266.635864,76.570323,172.283227,9762.716208
266.638399,76.570323,114.855485,9820.143950
266.640933,114.855485,114.855485,9858.429112
266.643467,19.142581,153.140646,9877.571693
266.646002,76.570323,172.283227,9858.429112
266.648536,76.570323,229.710970,9877.571693
266.651071,19.142581,191.425808,9839.286531
266.653605,-0.000000,191.425808,9801.001370
266.656139,38.285162,133.998066,9877.571693
266.658674,57.427742,191.425808,9877.571693
266.661208,76.570323,191.425808,9858.429112
266.663743,57.427742,114.855485,9839.286531
266.666277,38.285162,153.140646,9896.714274
266.668811,57.427742,172.283227,9839.286531
266.671346,38.285162,114.855485,9896.714274
266.673880,76.570323,172.283227,9762.716208
266.676415,133.998066,210.568389,9820.143950
266.678949,19.142581,153.140646,9896.714274
266.681483,76.570323,210.568389,9858.429112
266.684018,76.570323,172.283227,9877.571693
266.686552,57.427742,133.998066,9934.999435
266.689087,76.570323,172.283227,9858.429112
266.691621,19.142581,153.140646,9896.714274
266.694155,76.570323,267.996131,9877.571693
266.696690,19.142581,133.998066,9896.714274
266.699224,114.855485,210.568389,9801.001370
266.701759,76.570323,172.283227,9801.001370
266.704302,114.855485,114.855485,9858.429112
266.706845,76.570323,210.568389,9877.571693
266.709388,19.142581,191.425808,9801.001370
266.711931,76.570323,114.855485,9839.286531
266.714474,76.570323,114.855485,9839.286531
266.717017,153.140646,114.855485,9896.714274
266.719560,57.427742,248.853550,9934.999435
266.722103,57.427742,95.712904,9801.001370
266.724646,57.427742,114.855485,9896.714274
266.727189,76.570323,114.855485,9877.571693
266.729732,38.285162,133.998066,9877.571693
266.732275,114.855485,114.855485,9820.143950
266.734818,57.427742,153.140646,9877.571693
266.737361,19.142581,191.425808,9781.858789
266.739904,76.570323,172.283227,9839.286531
266.742447,57.427742,287.138712,9781.858789
266.744990,95.712904,153.140646,9858.429112
266.747533,114.855485,210.568389,9858.429112
266.750076,76.570323,210.568389,9820.143950
266.752619,57.427742,172.283227,9801.001370
266.755162,57.427742,95.712904,9781.858789
266.757705,95.712904,133.998066,9934.999435
266.760248,95.712904,172.283227,9877.571693
266.762791,114.855485,153.140646,9877.571693
266.765334,57.427742,229.710970,9858.429112
266.767877,57.427742,191.425808,9934.999435
266.770420,19.142581,153.140646,9839.286531
266.772963,76.570323,210.568389,9877.571693
266.775506,133.998066,210.568389,9877.571693
266.778049,95.712904,114.855485,9820.143950
266.780592,19.142581,210.568389,9781.858789
266.783135,95.712904,210.568389,9877.571693
266.785678,76.570323,172.283227,9877.571693
266.788221,95.712904,172.283227,9762.716208
266.790764,57.427742,114.855485,9858.429112
266.793307,76.570323,133.998066,9896.714274
266.795850,76.570323,114.855485,9820.143950
266.798393,57.427742,172.283227,9877.571693
266.800936,133.998066,172.283227,9877.571693
266.803479,57.427742,95.712904,9896.714274
266.806029,76.570323,114.855485,9839.286531
266.808579,38.285162,191.425808,9896.714274
266.811129,-0.000000,172.283227,9896.714274
266.813679,19.142581,133.998066,9820.143950
266.816228,76.570323,114.855485,9839.286531
266.818778,76.570323,172.283227,9801.001370
266.821328,114.855485,172.283227,9877.571693
266.823878,76.570323,210.568389,9896.714274
266.826428,76.570323,210.568389,9839.286531
266.828978,76.570323,172.283227,9839.286531
266.831528,19.142581,172.283227,9858.429112
266.834078,19.142581,210.568389,9820.143950
266.836628,76.570323,172.283227,9858.429112
266.839178,133.998066,114.855485,9877.571693
266.841728,114.855485,210.568389,9801.001370
266.844278,76.570323,210.568389,9858.429112
266.846828,76.570323,229.710970,9839.286531
266.849378,76.570323,172.283227,9877.571693
266.851928,76.570323,191.425808,9858.429112
266.854478,76.570323,210.568389,9858.429112
266.857028,133.998066,114.855485,9858.429112
266.859577,76.570323,172.283227,9858.429112
266.862127,19.142581,133.998066,9896.714274
266.864677,95.712904,95.712904,9896.714274
266.867227,19.142581,133.998066,9801.001370
266.869777,76.570323,229.710970,9762.716208
266.872327,76.570323,210.568389,9801.001370
266.874877,57.427742,95.712904,9801.001370
266.877427,57.427742,191.425808,9762.716208
266.879977,76.570323,172.283227,9820.143950
266.882527,38.285162,76.570323,9820.143950
266.885077,76.570323,114.855485,9877.571693
266.887627,76.570323,172.283227,9820.143950
266.890177,76.570323,172.283227,9839.286531
266.892727,114.855485,210.568389,9839.286531
266.895277,76.570323,210.568389,9801.001370
266.897827,19.142581,153.140646,9781.858789
266.900376,57.427742,95.712904,9858.429112
266.902926,19.142581,133.998066,9896.714274
266.905476,114.855485,191.425808,9801.001370
266.908031,76.570323,133.998066,9839.286531
266.910586,19.142581,210.568389,9801.001370
266.913141,76.570323,172.283227,9801.001370
266.915696,114.855485,229.710970,9858.429112
266.918251,76.570323,153.140646,9858.429112
266.920805,95.712904,172.283227,9839.286531
266.923360,19.142581,172.283227,9896.714274
266.925915,-95.712904,172.283227,9820.143950
266.928470,38.285162,172.283227,9896.714274
266.931025,57.427742,133.998066,9934.999435
266.933580,153.140646,210.568389,9896.714274
266.936134,76.570323,114.855485,9762.716208
266.938689,57.427742,114.855485,9896.714274
266.941244,114.855485,248.853550,9934.999435
266.943799,57.427742,95.712904,9839.286531
266.946354,57.427742,95.712904,9896.714274
266.948909,76.570323,114.855485,9762.716208
266.951463,95.712904,95.712904,9896.714274
266.954018,57.427742,191.425808,9877.571693
266.956573,76.570323,153.140646,9820.143950
266.959128,19.142581,153.140646,9839.286531
266.961683,76.570323,114.855485,9858.429112
266.964238,76.570323,133.998066,9896.714274
266.966792,153.140646,133.998066,9934.999435
266.969347,76.570323,172.283227,9877.571693
266.971902,-19.142581,153.140646,9801.001370
266.974457,114.855485,210.568389,9820.143950
266.977012,76.570323,172.283227,9858.429112
266.979567,114.855485,210.568389,9839.286531
266.982121,76.570323,114.855485,9820.143950
266.984676,76.570323,172.283227,9877.571693
266.987231,57.427742,153.140646,9934.999435
266.989786,76.570323,133.998066,9915.856854
266.992341,38.285162,133.998066,9858.429112
266.994896,76.570323,210.568389,9858.429112
266.997450,133.998066,172.283227,9820.143950
267.000005,76.570323,191.425808,9858.429112
267.002560,76.570323,172.283227,9858.429112
267.005115,114.855485,172.283227,9877.571693
267.007670,76.570323,114.855485,9820.143950
267.010229,19.142581,172.283227,9801.001370
267.012787,76.570323,210.568389,9858.429112
267.015346,76.570323,191.425808,9839.286531
267.017905,95.712904,210.568389,9762.716208
267.020463,76.570323,229.710970,9839.286531
267.023022,114.855485,172.283227,9839.286531
267.025581,38.285162,133.998066,9820.143950
267.028140,76.570323,210.568389,9820.143950
267.030698,57.427742,248.853550,9934.999435
267.033257,57.427742,114.855485,9858.429112
267.035816,76.570323,172.283227,9877.571693
267.038375,19.142581,133.998066,9896.714274
267.040933,38.285162,287.138712,9915.856854
267.043492,57.427742,95.712904,9896.714274
267.046051,76.570323,172.283227,9820.143950
267.048610,133.998066,210.568389,9877.571693
267.051168,76.570323,153.140646,9858.429112
267.053727,76.570323,114.855485,9839.286531
267.056286,76.570323,248.853550,9839.286531
267.058845,19.142581,153.140646,9801.001370
267.061403,133.998066,191.425808,9896.714274
267.063962,19.142581,133.998066,9896.714274
267.066521,19.142581,172.283227,9839.286531
267.069080,38.285162,172.283227,9915.856854
267.071638,76.570323,172.283227,9877.571693
267.074197,114.855485,153.140646,9839.286531
267.076756,76.570323,191.425808,9877.571693
267.079314,76.570323,153.140646,9801.001370
267.081873,95.712904,210.568389,9858.429112
267.084432,57.427742,95.712904,9839.286531
267.086991,76.570323,172.283227,9820.143950
267.089549,38.285162,76.570323,9877.571693
267.092108,76.570323,210.568389,9801.001370
267.094667,95.712904,114.855485,9762.716208
267.097226,76.570323,153.140646,9820.143950
267.099784,191.425808,133.998066,9839.286531
267.102343,114.855485,172.283227,9820.143950
267.104902,114.855485,210.568389,9858.429112
267.107461,95.712904,210.568389,9801.001370
267.110019,76.570323,114.855485,9858.429112
267.112581,57.427742,76.570323,9820.143950
267.115142,19.142581,191.425808,9839.286531
267.117704,76.570323,114.855485,9877.571693
267.120265,19.142581,114.855485,9839.286531
267.122827,76.570323,172.283227,9877.571693
267.125388,19.142581,133.998066,9839.286531
267.127950,76.570323,172.283227,9858.429112
267.130511,114.855485,114.855485,9839.286531
267.133073,76.570323,191.425808,9839.286531
267.135634,76.570323,191.425808,9877.571693
267.138196,114.855485,172.283227,9801.001370
267.140757,114.855485,133.998066,9934.999435
267.143319,95.712904,172.283227,9820.143950
267.145880,76.570323,172.283227,9858.429112
267.148442,76.570323,172.283227,9801.001370
267.151003,153.140646,287.138712,9801.001370
267.153565,114.855485,114.855485,9877.571693
267.156126,95.712904,210.568389,9934.999435
267.158687,38.285162,267.996131,9877.571693
267.161249,19.142581,153.140646,9801.001370
267.163810,76.570323,114.855485,9877.571693
267.166372,19.142581,133.998066,9839.286531
267.168933,57.427742,95.712904,9896.714274
267.171495,153.140646,95.712904,9781.858789
267.174056,76.570323,172.283227,9820.143950
267.176618,76.570323,191.425808,9762.716208
267.179179,95.712904,172.283227,9820.143950
267.181741,57.427742,191.425808,9877.571693
267.184302,76.570323,172.283227,9839.286531
267.186864,76.570323,153.140646,9839.286531
267.189425,19.142581,248.853550,9858.429112
267.191987,76.570323,191.425808,9820.143950
267.194548,76.570323,172.283227,9820.143950
267.197110,114.855485,172.283227,9858.429112
267.199671,76.570323,114.855485,9820.143950
267.202233,114.855485,172.283227,9839.286531
267.204794,19.142581,133.998066,9839.286531
267.207356,95.712904,114.855485,9820.143950
267.209917,76.570323,172.283227,9820.143950
267.212479,76.570323,210.568389,9820.143950
267.215042,19.142581,191.425808,9858.429112
267.217605,19.142581,172.283227,9801.001370
267.220168,57.427742,153.140646,9743.573627
267.222732,76.570323,210.568389,9877.571693
267.225295,95.712904,95.712904,9896.714274
267.227858,95.712904,191.425808,9877.571693
267.230421,57.427742,229.710970,9858.429112
267.232985,114.855485,191.425808,9877.571693
267.235548,19.142581,191.425808,9801.001370
267.238111,76.570323,229.710970,9877.571693
267.240675,76.570323,229.710970,9858.429112
267.243238,-0.000000,191.425808,9781.858789
267.245801,114.855485,172.283227,9858.429112
267.248364,76.570323,210.568389,9877.571693
267.250928,76.570323,114.855485,9858.429112
267.253491,19.142581,153.140646,9858.429112
267.256054,76.570323,210.568389,9858.429112
267.258617,95.712904,229.710970,9839.286531
267.261181,114.855485,114.855485,9858.429112
267.263744,57.427742,95.712904,9858.429112
267.266307,76.570323,172.283227,9858.429112
267.268871,76.570323,114.855485,9762.716208
267.271434,38.285162,133.998066,9858.429112
267.273997,57.427742,210.568389,9820.143950
267.276560,114.855485,172.283227,9858.429112
267.279124,76.570323,172.283227,9877.571693
267.281687,19.142581,172.283227,9858.429112
267.284250,76.570323,210.568389,9839.286531
267.286813,153.140646,114.855485,9781.858789
267.289377,57.427742,95.712904,9801.001370
267.291940,19.142581,172.283227,9801.001370
267.294503,-38.285162,248.853550,9801.001370
267.297067,76.570323,191.425808,9858.429112
267.299630,76.570323,172.283227,9858.429112
267.302193,114.855485,114.855485,9839.286531
267.304756,114.855485,210.568389,9858.429112
267.307320,38.285162,133.998066,9877.571693
267.309883,57.427742,114.855485,9839.286531
267.312446,76.570323,114.855485,9820.143950
267.315009,76.570323,210.568389,9896.714274
267.317574,95.712904,153.140646,9877.571693
267.320138,133.998066,191.425808,9820.143950
267.322702,76.570323,210.568389,9801.001370
267.325267,76.570323,210.568389,9858.429112
267.327831,76.570323,210.568389,9858.429112
267.330395,76.570323,191.425808,9877.571693
267.332959,57.427742,95.712904,9896.714274
267.335524,-19.142581,153.140646,9858.429112
267.338088,133.998066,172.283227,9877.571693
267.340652,133.998066,172.283227,9839.286531
267.343216,76.570323,172.283227,9820.143950
267.345781,76.570323,210.568389,9820.143950
267.348345,76.570323,114.855485,9801.001370
267.350909,76.570323,172.283227,9858.429112
267.353473,76.570323,210.568389,9877.571693
267.356038,57.427742,95.712904,9896.714274
267.358602,-19.142581,133.998066,9781.858789
267.361166,76.570323,172.283227,9858.429112
267.363730,76.570323,172.283227,9877.571693
267.366295,76.570323,114.855485,9934.999435
267.368859,19.142581,153.140646,9839.286531
267.371423,76.570323,114.855485,9858.429112
267.373987,76.570323,76.570323,9915.856854
267.376552,57.427742,172.283227,9858.429112
267.379116,114.855485,191.425808,9858.429112
267.381680,76.570323,153.140646,9839.286531
267.384245,76.570323,191.425808,9934.999435
267.386809,19.142581,172.283227,9839.286531
267.389373,95.712904,95.712904,9858.429112
267.391937,210.568389,133.998066,9896.714274
267.394502,19.142581,172.283227,9858.429112
267.397066,19.142581,153.140646,9839.286531
267.399630,57.427742,153.140646,9877.571693
267.402194,76.570323,114.855485,9820.143950
267.404759,114.855485,153.140646,9877.571693
267.407323,114.855485,172.283227,9877.571693
267.409887,57.427742,210.568389,9896.714274
267.412451,57.427742,153.140646,9877.571693
267.415016,114.855485,210.568389,9801.001370
267.417580,114.855485,172.283227,9820.143950
267.420144,38.285162,172.283227,9915.856854
267.422709,76.570323,172.283227,9801.001370
267.425275,19.142581,133.998066,9858.429112
267.427840,76.570323,133.998066,9858.429112
267.430406,114.855485,172.283227,9820.143950
267.432971,95.712904,191.425808,9820.143950
267.435537,76.570323,172.283227,9839.286531
267.438102,95.712904,210.568389,9801.001370
267.440668,76.570323,172.283227,9858.429112
267.443233,19.142581,133.998066,9858.429112
267.445799,19.142581,172.283227,9858.429112
267.448364,76.570323,210.568389,9762.716208
267.450930,76.570323,153.140646,9858.429112
267.453495,95.712904,133.998066,9934.999435
267.456061,114.855485,114.855485,9877.571693
267.458626,114.855485,172.283227,9762.716208
267.461192,-19.142581,153.140646,9896.714274
267.463757,19.142581,191.425808,9839.286531
267.466323,95.712904,133.998066,9781.858789
267.468888,19.142581,95.712904,9896.714274
267.471453,19.142581,133.998066,9896.714274
267.474019,38.285162,114.855485,9801.001370
267.476584,57.427742,172.283227,9877.571693
267.479150,76.570323,114.855485,9801.001370
267.481715,57.427742,172.283227,9781.858789
267.484281,76.570323,210.568389,9858.429112
267.486846,57.427742,153.140646,9934.999435
267.489412,114.855485,114.855485,9858.429112
267.491977,38.285162,76.570323,9858.429112
267.494543,95.712904,114.855485,9820.143950
267.497108,76.570323,172.283227,9801.001370
267.499674,38.285162,191.425808,9877.571693
267.502239,19.142581,95.712904,9934.999435
267.504805,19.142581,191.425808,9896.714274
267.507370,19.142581,191.425808,9839.286531
267.509936,76.570323,114.855485,9858.429112
267.512501,57.427742,191.425808,9934.999435
267.515067,57.427742,95.712904,9839.286531
267.517632,57.427742,153.140646,9762.716208
267.520198,19.142581,248.853550,9896.714274
267.522764,57.427742,133.998066,9877.571693
267.525330,57.427742,76.570323,9839.286531
267.527896,76.570323,76.570323,9915.856854
267.530462,76.570323,76.570323,9839.286531
267.533028,-19.142581,133.998066,9858.429112
267.535594,38.285162,76.570323,9820.143950
267.538160,95.712904,95.712904,9839.286531
267.540726,76.570323,172.283227,9839.286531
267.543292,19.142581,153.140646,9839.286531
267.545858,57.427742,95.712904,9801.001370
267.548424,76.570323,153.140646,9858.429112
267.550990,57.427742,133.998066,9743.573627
267.553556,76.570323,114.855485,9839.286531
267.556122,19.142581,248.853550,9896.714274
267.558688,114.855485,172.283227,9858.429112
267.561254,57.427742,133.998066,9934.999435
267.563820,19.142581,172.283227,9896.714274
267.566386,-0.000000,76.570323,9877.571693
267.568952,38.285162,76.570323,9839.286531
267.571518,76.570323,172.283227,9801.001370
267.574084,95.712904,114.855485,9858.429112
267.576650,76.570323,210.568389,9820.143950
267.579216,38.285162,172.283227,9896.714274
267.581782,38.285162,267.996131,9820.143950
267.584348,19.142581,191.425808,9781.858789
267.586914,57.427742,153.140646,9877.571693
267.589480,76.570323,114.855485,9820.143950
267.592046,114.855485,172.283227,9877.571693
267.594612,114.855485,172.283227,9820.143950
267.597178,19.142581,210.568389,9839.286531
267.599744,76.570323,210.568389,9801.001370
267.602310,38.285162,210.568389,9915.856854
267.604876,76.570323,191.425808,9801.001370
267.607442,57.427742,114.855485,9839.286531
267.610008,57.427742,153.140646,9877.571693
267.612574,19.142581,114.855485,9858.429112
267.615140,76.570323,133.998066,9915.856854
267.617706,38.285162,76.570323,9801.001370
267.620272,76.570323,172.283227,9877.571693
267.622838,38.285162,76.570323,9858.429112
267.625403,38.285162,76.570323,9934.999435
267.627969,76.570323,172.283227,9877.571693
267.630535,-0.000000,153.140646,9801.001370
267.633100,19.142581,153.140646,9896.714274
267.635666,76.570323,191.425808,9801.001370
267.638232,57.427742,153.140646,9934.999435
267.640797,95.712904,172.283227,9858.429112
267.643363,114.855485,172.283227,9839.286531
267.645929,57.427742,191.425808,9877.571693
267.648494,-38.285162,191.425808,9839.286531
267.651060,76.570323,191.425808,9762.716208
267.653626,114.855485,210.568389,9839.286531
267.656191,57.427742,172.283227,9839.286531
267.658757,19.142581,172.283227,9896.714274
267.661323,76.570323,172.283227,9858.429112
267.663888,19.142581,210.568389,9877.571693
267.666454,57.427742,133.998066,9934.999435
267.669020,114.855485,172.283227,9801.001370
267.671585,76.570323,210.568389,9877.571693
267.674151,114.855485,114.855485,9839.286531
267.676716,133.998066,172.283227,9877.571693
267.679282,76.570323,172.283227,9839.286531
267.681848,76.570323,210.568389,9839.286531
267.684413,76.570323,210.568389,9762.716208
267.686979,76.570323,210.568389,9839.286531
267.689545,95.712904,172.283227,9877.571693
267.692110,133.998066,191.425808,9801.001370
267.694676,57.427742,114.855485,9839.286531
267.697242,191.425808,153.140646,9839.286531
267.699807,19.142581,153.140646,9858.429112
267.702373,19.142581,114.855485,9877.571693
267.704939,19.142581,210.568389,9839.286531
267.707504,76.570323,114.855485,9896.714274
267.710070,19.142581,172.283227,9877.571693
267.712636,76.570323,172.283227,9762.716208
267.715201,57.427742,95.712904,9781.858789
267.717767,133.998066,210.568389,9858.429112
267.720333,114.855485,153.140646,9858.429112
267.722898,57.427742,133.998066,9877.571693
267.725464,76.570323,210.568389,9858.429112
267.728029,19.142581,133.998066,9896.714274
267.730594,76.570323,172.283227,9858.429112
267.733158,76.570323,153.140646,9858.429112
267.735723,76.570323,210.568389,9762.716208
267.738288,19.142581,248.853550,9801.001370
267.740852,76.570323,114.855485,9820.143950
267.743417,76.570323,114.855485,9762.716208
267.745982,76.570323,191.425808,9877.571693
267.748547,76.570323,153.140646,9934.999435
267.751111,19.142581,248.853550,9896.714274
267.753676,76.570323,210.568389,9858.429112
267.756241,76.570323,191.425808,9858.429112
267.758805,153.140646,114.855485,9781.858789
267.761370,57.427742,191.425808,9934.999435
267.763935,76.570323,114.855485,9801.001370
267.766500,76.570323,172.283227,9820.143950
267.769064,57.427742,210.568389,9934.999435
267.771629,76.570323,153.140646,9877.571693
267.774194,76.570323,210.568389,9820.143950
267.776758,133.998066,172.283227,9820.143950
267.779323,95.712904,229.710970,9858.429112
267.781888,19.142581,133.998066,9896.714274
267.784453,19.142581,248.853550,9858.429112
267.787017,76.570323,114.855485,9762.716208
267.789582,76.570323,191.425808,9820.143950
267.792147,114.855485,172.283227,9858.429112
267.794711,114.855485,172.283227,9877.571693
267.797276,76.570323,191.425808,9858.429112
267.799841,-0.000000,248.853550,9781.858789
267.802406,57.427742,133.998066,9858.429112
267.804970,76.570323,210.568389,9762.716208
267.807535,57.427742,248.853550,9839.286531
267.810100,19.142581,248.853550,9896.714274
267.812664,57.427742,153.140646,9762.716208
267.815229,19.142581,153.140646,9858.429112
267.817794,76.570323,114.855485,9801.001370
267.820359,76.570323,153.140646,9762.716208
267.822923,57.427742,95.712904,9896.714274
267.825488,38.285162,191.425808,9934.999435
267.828053,76.570323,172.283227,9858.429112
267.830616,57.427742,172.283227,9915.856854
267.833180,19.142581,133.998066,9896.714274
267.835743,95.712904,114.855485,9877.571693
267.838306,19.142581,191.425808,9896.714274
267.840870,57.427742,95.712904,9820.143950
267.843433,95.712904,172.283227,9858.429112
267.845996,76.570323,114.855485,9858.429112
267.848560,76.570323,172.283227,9839.286531
267.851123,76.570323,210.568389,9877.571693
267.853687,57.427742,153.140646,9839.286531
267.856250,76.570323,153.140646,9877.571693
267.858813,76.570323,210.568389,9762.716208
267.861377,76.570323,114.855485,9858.429112
267.863940,95.712904,191.425808,9934.999435
267.866503,38.285162,76.570323,9820.143950
267.869067,19.142581,191.425808,9896.714274
267.871630,57.427742,133.998066,9934.999435
267.874194,76.570323,114.855485,9877.571693
267.876757,76.570323,172.283227,9762.716208
267.879320,95.712904,172.283227,9801.001370
267.881884,76.570323,210.568389,9820.143950
267.884447,76.570323,114.855485,9858.429112
267.887011,95.712904,153.140646,9820.143950
267.889574,19.142581,191.425808,9858.429112
267.892137,114.855485,210.568389,9877.571693
267.894701,57.427742,153.140646,9762.716208
267.897264,114.855485,114.855485,9839.286531
267.899827,95.712904,191.425808,9839.286531
267.902391,76.570323,191.425808,9877.571693
267.904954,76.570323,229.710970,9877.571693
267.907518,19.142581,153.140646,9781.858789
267.910081,76.570323,172.283227,9858.429112
267.912644,19.142581,133.998066,9896.714274
267.915208,57.427742,95.712904,9839.286531
267.917771,76.570323,210.568389,9858.429112
267.920334,76.570323,210.568389,9877.571693
267.922898,95.712904,172.283227,9801.001370
267.925461,38.285162,76.570323,9801.001370
267.928025,114.855485,172.283227,9877.571693
267.930588,57.427742,153.140646,9877.571693
267.933150,114.855485,210.568389,9801.001370
267.935712,19.142581,133.998066,9839.286531
267.938274,76.570323,153.140646,9839.286531
267.940835,95.712904,114.855485,9858.429112
267.943397,76.570323,210.568389,9820.143950
267.945959,19.142581,114.855485,9820.143950
267.948521,57.427742,153.140646,9877.571693
267.951083,76.570323,191.425808,9858.429112
267.953645,76.570323,172.283227,9877.571693
267.956207,38.285162,248.853550,9820.143950
267.958769,76.570323,172.283227,9877.571693
267.961330,76.570323,210.568389,9858.429112
267.963892,57.427742,95.712904,9896.714274
267.966454,57.427742,95.712904,9839.286531
267.969016,19.142581,191.425808,9801.001370
267.971578,19.142581,191.425808,9801.001370
267.974140,76.570323,114.855485,9877.571693
267.976702,76.570323,267.996131,9896.714274
267.979264,19.142581,191.425808,9839.286531
267.981825,76.570323,172.283227,9762.716208
267.984387,76.570323,133.998066,9858.429112
267.986949,57.427742,172.283227,9934.999435
267.989511,19.142581,133.998066,9839.286531
267.992073,19.142581,210.568389,9858.429112
267.994635,19.142581,153.140646,9781.858789
267.997197,19.142581,133.998066,9820.143950
267.999759,76.570323,114.855485,9858.429112
268.002320,76.570323,114.855485,9858.429112
268.004882,76.570323,172.283227,9877.571693
268.007444,38.285162,76.570323,9839.286531
268.010006,76.570323,172.283227,9877.571693
268.012568,76.570323,172.283227,9877.571693
268.015130,57.427742,95.712904,9858.429112
268.017692,57.427742,191.425808,9934.999435
268.020254,114.855485,229.710970,9820.143950
268.022815,76.570323,172.283227,9839.286531
268.025377,114.855485,153.140646,9839.286531
268.027939,76.570323,172.283227,9858.429112
268.030501,-0.000000,76.570323,9801.001370
268.033063,76.570323,153.140646,9877.571693
268.035591,38.285162,210.568389,9896.714274
268.038119,19.142581,191.425808,9858.429112
268.040648,114.855485,210.568389,9858.429112
268.043176,38.285162,76.570323,9820.143950
268.045704,19.142581,172.283227,9858.429112
268.048232,19.142581,172.283227,9896.714274
268.050761,114.855485,153.140646,9877.571693
268.053289,57.427742,153.140646,9934.999435
268.055817,95.712904,172.283227,9820.143950
268.058345,95.712904,172.283227,9839.286531
268.060874,57.427742,133.998066,9762.716208
268.063402,57.427742,153.140646,9934.999435
268.065930,95.712904,210.568389,9762.716208
268.068458,95.712904,57.427742,9896.714274
268.070986,191.425808,133.998066,9896.714274
268.073515,57.427742,210.568389,9801.001370
268.076043,133.998066,210.568389,9839.286531
268.078571,95.712904,210.568389,9877.571693
268.081099,19.142581,191.425808,9896.714274
268.083628,38.285162,267.996131,9839.286531
268.086156,76.570323,172.283227,9858.429112
268.088684,57.427742,95.712904,9801.001370
268.091212,114.855485,95.712904,9896.714274
268.093741,76.570323,172.283227,9820.143950
268.096269,76.570323,210.568389,9801.001370
268.098797,114.855485,191.425808,9858.429112
268.101325,76.570323,153.140646,9877.571693
268.103854,114.855485,229.710970,9839.286531
268.106382,76.570323,229.710970,9820.143950
268.108910,76.570323,114.855485,9858.429112
268.111438,38.285162,133.998066,9762.716208
268.113967,114.855485,114.855485,9762.716208
268.116495,76.570323,172.283227,9820.143950
268.119023,19.142581,153.140646,9839.286531
268.121551,76.570323,229.710970,9858.429112
268.124079,153.140646,210.568389,9877.571693
268.126608,114.855485,153.140646,9820.143950
268.129136,76.570323,153.140646,9801.001370
268.131664,95.712904,114.855485,9858.429112
268.134192,-0.000000,229.710970,9934.999435
268.136727,57.427742,153.140646,9858.429112
268.139261,19.142581,153.140646,9858.429112
268.141795,38.285162,172.283227,9896.714274
268.144329,76.570323,172.283227,9820.143950
268.146863,19.142581,153.140646,9896.714274
268.149397,19.142581,153.140646,9896.714274
268.151932,76.570323,229.710970,9877.571693
268.154466,19.142581,153.140646,9801.001370
268.157000,95.712904,114.855485,9877.571693
268.159534,19.142581,133.998066,9896.714274
268.162068,57.427742,95.712904,9896.714274
268.164602,-19.142581,248.853550,9820.143950
268.167137,57.427742,210.568389,9934.999435
268.169671,76.570323,210.568389,9820.143950
268.172205,57.427742,114.855485,9820.143950
268.174739,114.855485,95.712904,9858.429112
268.177273,38.285162,114.855485,9801.001370
268.179808,38.285162,210.568389,9915.856854
268.182342,19.142581,191.425808,9839.286531
268.184876,57.427742,133.998066,9934.999435
268.187410,-0.000000,133.998066,9896.714274
268.189944,76.570323,229.710970,9839.286531
268.192478,76.570323,210.568389,9839.286531
268.195013,76.570323,210.568389,9762.716208
268.197547,76.570323,172.283227,9858.429112
268.200081,76.570323,114.855485,9877.571693
268.202615,57.427742,114.855485,9896.714274
268.205149,76.570323,229.710970,9877.571693
268.207683,114.855485,114.855485,9877.571693
268.210218,57.427742,229.710970,9839.286531
268.212752,114.855485,210.568389,9858.429112
268.215286,57.427742,114.855485,9801.001370
268.217820,38.285162,172.283227,9915.856854
268.220354,76.570323,114.855485,9877.571693
268.222888,114.855485,172.283227,9877.571693
268.225423,95.712904,133.998066,9762.716208
268.227957,76.570323,210.568389,9820.143950
268.230491,114.855485,191.425808,9877.571693
268.233025,76.570323,172.283227,9877.571693
268.235559,38.285162,229.710970,9915.856854
268.238066,57.427742,153.140646,9934.999435
268.240572,57.427742,114.855485,9896.714274
268.243079,76.570323,114.855485,9858.429112
268.245585,19.142581,191.425808,9858.429112
268.248092,114.855485,114.855485,9801.001370
268.250598,19.142581,210.568389,9801.001370
268.253105,114.855485,114.855485,9820.143950
268.255611,76.570323,114.855485,9858.429112
268.258118,114.855485,114.855485,9781.858789
268.260624,57.427742,287.138712,9896.714274
268.263131,114.855485,172.283227,9820.143950
268.265637,76.570323,210.568389,9858.429112
268.268144,133.998066,248.853550,9858.429112
268.270650,76.570323,229.710970,9839.286531
268.273157,95.712904,172.283227,9934.999435
268.275663,38.285162,153.140646,9858.429112
268.278170,76.570323,114.855485,9839.286531
268.280676,19.142581,172.283227,9896.714274
268.283183,76.570323,191.425808,9858.429112
268.285689,153.140646,114.855485,9801.001370
268.288196,-0.000000,172.283227,9839.286531
268.290702,133.998066,114.855485,9801.001370
268.293209,76.570323,153.140646,9839.286531
268.295715,76.570323,114.855485,9877.571693
268.298221,76.570323,172.283227,9820.143950
268.300728,76.570323,172.283227,9820.143950
268.303234,19.142581,133.998066,9858.429112
268.305741,76.570323,133.998066,9915.856854
268.308247,19.142581,210.568389,9839.286531
268.310754,76.570323,114.855485,9877.571693
268.313260,-19.142581,210.568389,9896.714274
268.315767,76.570323,210.568389,9839.286531
268.318273,57.427742,191.425808,9877.571693
268.320780,19.142581,153.140646,9820.143950
268.323286,95.712904,172.283227,9877.571693
268.325793,19.142581,133.998066,9896.714274
268.328299,-0.000000,153.140646,9801.001370
268.330806,76.570323,153.140646,9858.429112
268.333312,19.142581,191.425808,9839.286531
268.335819,57.427742,191.425808,9934.999435
268.338335,76.570323,191.425808,9858.429112
268.340851,19.142581,172.283227,9896.714274
268.343368,76.570323,172.283227,9801.001370
268.345884,19.142581,133.998066,9839.286531
268.348401,76.570323,172.283227,9877.571693
268.350917,76.570323,172.283227,9877.571693
268.353433,95.712904,248.853550,9877.571693
268.355950,95.712904,229.710970,9820.143950
268.358466,76.570323,191.425808,9839.286531
268.360982,76.570323,210.568389,9820.143950
268.363499,76.570323,114.855485,9839.286531
268.366015,19.142581,191.425808,9801.001370
268.368532,38.285162,76.570323,9858.429112
268.371048,38.285162,172.283227,9915.856854
268.373564,76.570323,114.855485,9820.143950
268.376081,19.142581,210.568389,9839.286531
268.378597,133.998066,191.425808,9877.571693
268.381113,95.712904,95.712904,9801.001370
268.383630,38.285162,248.853550,9839.286531
268.386146,57.427742,95.712904,9801.001370
268.388662,76.570323,172.283227,9858.429112
268.391179,114.855485,172.283227,9877.571693
268.393695,153.140646,133.998066,9858.429112
268.396212,19.142581,153.140646,9801.001370
268.398728,76.570323,210.568389,9877.571693
268.401244,95.712904,210.568389,9858.429112
268.403761,76.570323,172.283227,9839.286531
268.406277,76.570323,153.140646,9839.286531
268.408793,76.570323,172.283227,9801.001370
268.411310,19.142581,133.998066,9896.714274
268.413826,-19.142581,191.425808,9896.714274
268.416343,95.712904,172.283227,9877.571693
268.418859,76.570323,210.568389,9858.429112
268.421375,76.570323,210.568389,9839.286531
268.423892,19.142581,172.283227,9801.001370
268.426408,76.570323,172.283227,9820.143950
268.428924,76.570323,172.283227,9877.571693
268.431441,76.570323,114.855485,9820.143950
268.433957,114.855485,172.283227,9877.571693
268.436473,76.570323,210.568389,9839.286531
268.439000,19.142581,248.853550,9896.714274
268.441525,76.570323,76.570323,9915.856854
268.444050,76.570323,172.283227,9839.286531
268.446575,114.855485,210.568389,9877.571693
268.449100,19.142581,133.998066,9858.429112
268.451625,57.427742,95.712904,9839.286531
268.454150,76.570323,210.568389,9839.286531
268.456675,38.285162,114.855485,9839.286531
268.459200,76.570323,114.855485,9762.716208
268.461725,76.570323,210.568389,9839.286531
268.464250,76.570323,210.568389,9820.143950
268.466776,76.570323,172.283227,9877.571693
268.469301,76.570323,153.140646,9820.143950
268.471826,38.285162,172.283227,9896.714274
268.474351,95.712904,191.425808,9839.286531
268.476876,76.570323,133.998066,9896.714274
268.479401,19.142581,114.855485,9839.286531
268.481926,76.570323,191.425808,9858.429112
268.484451,76.570323,114.855485,9858.429112
268.486976,19.142581,172.283227,9801.001370
268.489501,153.140646,57.427742,9839.286531
268.492026,57.427742,153.140646,9877.571693
268.494551,19.142581,210.568389,9801.001370
268.497076,114.855485,114.855485,9858.429112
268.499601,57.427742,229.710970,9839.286531
268.502126,114.855485,114.855485,9820.143950
268.504651,76.570323,76.570323,9915.856854
268.507176,19.142581,133.998066,9801.001370
268.509701,76.570323,172.283227,9839.286531
268.512226,57.427742,133.998066,9934.999435
268.514751,76.570323,210.568389,9839.286531
268.517276,19.142581,133.998066,9801.001370
268.519801,57.427742,114.855485,9839.286531
268.522327,19.142581,153.140646,9896.714274
268.524852,57.427742,95.712904,9820.143950
268.527377,19.142581,133.998066,9896.714274
268.529902,114.855485,114.855485,9781.858789
268.532427,76.570323,172.283227,9839.286531
268.534952,38.285162,172.283227,9896.714274
268.537477,19.142581,191.425808,9858.429112
268.540009,19.142581,191.425808,9801.001370
268.542541,-0.000000,133.998066,9839.286531
268.545073,114.855485,114.855485,9820.143950
268.547605,76.570323,210.568389,9762.716208
268.550137,114.855485,210.568389,9762.716208
268.552669,76.570323,172.283227,9820.143950
268.555202,114.855485,229.710970,9801.001370
268.557734,114.855485,114.855485,9762.716208
268.560266,19.142581,191.425808,9896.714274
268.562798,76.570323,172.283227,9934.999435
268.565330,19.142581,153.140646,9839.286531
268.567862,38.285162,248.853550,9820.143950
268.570394,-19.142581,248.853550,9801.001370
268.572926,38.285162,133.998066,9839.286531
268.575458,133.998066,172.283227,9858.429112
268.577990,57.427742,95.712904,9858.429112
268.580523,76.570323,172.283227,9762.716208
268.583055,38.285162,210.568389,9915.856854
268.585587,76.570323,133.998066,9762.716208
268.588119,76.570323,172.283227,9762.716208
268.590651,95.712904,172.283227,9877.571693
268.593183,57.427742,153.140646,9858.429112
268.595715,76.570323,114.855485,9877.571693
268.598247,19.142581,133.998066,9858.429112
268.600779,-19.142581,133.998066,9896.714274
268.603311,76.570323,114.855485,9839.286531
268.605844,76.570323,191.425808,9915.856854
268.608376,76.570323,172.283227,9801.001370
268.610908,76.570323,114.855485,9762.716208
268.613440,76.570323,172.283227,9820.143950
268.615972,76.570323,229.710970,9839.286531
268.618504,57.427742,153.140646,9743.573627
268.621036,76.570323,153.140646,9877.571693
268.623568,76.570323,114.855485,9934.999435
268.626100,38.285162,76.570323,9839.286531
268.628633,57.427742,153.140646,9934.999435
268.631165,19.142581,191.425808,9801.001370
268.633697,76.570323,210.568389,9858.429112
268.636229,133.998066,229.710970,9820.143950
268.638761,114.855485,172.283227,9858.429112
268.641267,57.427742,95.712904,9820.143950
268.643773,38.285162,133.998066,9820.143950
268.646279,76.570323,114.855485,9820.143950
268.648785,19.142581,210.568389,9896.714274
268.651291,57.427742,133.998066,9934.999435
268.653797,57.427742,153.140646,9858.429112
268.656303,114.855485,229.710970,9858.429112
268.658809,133.998066,114.855485,9858.429112
268.661315,114.855485,95.712904,9839.286531
268.663821,57.427742,95.712904,9896.714274
268.666327,76.570323,172.283227,9858.429112
268.668833,76.570323,172.283227,9934.999435
268.671339,114.855485,172.283227,9801.001370
268.673845,95.712904,191.425808,9858.429112
268.676351,76.570323,210.568389,9839.286531
268.678857,38.285162,133.998066,9820.143950
268.681363,57.427742,191.425808,9934.999435
268.683869,76.570323,114.855485,9820.143950
268.686375,38.285162,210.568389,9896.714274
268.688881,57.427742,210.568389,9877.571693
268.691387,95.712904,114.855485,9820.143950
268.693893,57.427742,76.570323,9820.143950
268.696399,38.285162,153.140646,9915.856854
268.698905,76.570323,172.283227,9801.001370
268.701411,76.570323,287.138712,9820.143950
268.703917,114.855485,114.855485,9877.571693
268.706423,19.142581,153.140646,9896.714274
268.708929,19.142581,172.283227,9896.714274
268.711435,19.142581,153.140646,9801.001370
268.713941,57.427742,153.140646,9762.716208
268.716447,114.855485,248.853550,9896.714274
268.718953,76.570323,172.283227,9762.716208
268.721459,114.855485,172.283227,9839.286531
268.723965,114.855485,172.283227,9820.143950
268.726471,76.570323,114.855485,9820.143950
268.728977,57.427742,114.855485,9896.714274
268.731483,57.427742,95.712904,9896.714274
268.733989,76.570323,172.283227,9877.571693
268.736495,76.570323,210.568389,9839.286531
268.739001,76.570323,172.283227,9858.429112
268.741518,114.855485,172.283227,9820.143950
268.744034,133.998066,153.140646,9820.143950
268.746551,76.570323,172.283227,9762.716208
268.749067,114.855485,114.855485,9839.286531
268.751584,76.570323,133.998066,9820.143950
268.754101,76.570323,210.568389,9877.571693
268.756617,19.142581,133.998066,9896.714274
268.759134,76.570323,210.568389,9781.858789
268.761651,76.570323,191.425808,9820.143950
268.764167,95.712904,133.998066,9877.571693
268.766684,133.998066,210.568389,9839.286531
268.769201,19.142581,191.425808,9801.001370
268.771717,38.285162,133.998066,9762.716208
268.774234,19.142581,133.998066,9801.001370
268.776750,19.142581,191.425808,9896.714274
268.779267,114.855485,153.140646,9801.001370
268.781784,95.712904,229.710970,9839.286531
268.784300,57.427742,229.710970,9896.714274
268.786817,-19.142581,76.570323,9820.143950
268.789334,-19.142581,133.998066,9839.286531
268.791850,76.570323,191.425808,9820.143950
268.794367,19.142581,191.425808,9896.714274
268.796884,19.142581,114.855485,9934.999435
268.799400,76.570323,153.140646,9877.571693
268.801917,133.998066,248.853550,9858.429112
268.804434,76.570323,114.855485,9820.143950
268.806950,19.142581,153.140646,9839.286531
268.809467,38.285162,114.855485,9896.714274
268.811983,38.285162,133.998066,9801.001370
268.814500,57.427742,172.283227,9934.999435
268.817017,19.142581,191.425808,9839.286531
268.819533,95.712904,210.568389,9877.571693
268.822050,114.855485,229.710970,9877.571693
268.824567,-19.142581,172.283227,9915.856854
268.827083,114.855485,114.855485,9858.429112
268.829600,76.570323,191.425808,9858.429112
268.832117,57.427742,95.712904,9839.286531
268.834633,76.570323,114.855485,9839.286531
268.837150,19.142581,133.998066,9896.714274
268.839667,38.285162,76.570323,9820.143950
268.842161,76.570323,172.283227,9839.286531
268.844655,19.142581,133.998066,9801.001370
268.847150,95.712904,153.140646,9858.429112
268.849644,76.570323,114.855485,9858.429112
268.852139,95.712904,95.712904,9781.858789
268.854633,19.142581,153.140646,9801.001370
268.857128,76.570323,210.568389,9839.286531
268.859622,76.570323,210.568389,9839.286531
268.862116,114.855485,210.568389,9877.571693
268.864611,76.570323,172.283227,9858.429112
268.867105,76.570323,172.283227,9877.571693
268.869600,19.142581,153.140646,9781.858789
268.872094,133.998066,114.855485,9877.571693
268.874589,114.855485,114.855485,9820.143950
268.877083,76.570323,210.568389,9820.143950
268.879578,95.712904,229.710970,9820.143950
268.882072,95.712904,172.283227,9820.143950
268.884566,114.855485,210.568389,9762.716208
268.887061,57.427742,172.283227,9781.858789
268.889555,76.570323,229.710970,9801.001370
268.892050,76.570323,191.425808,9858.429112
268.894544,76.570323,172.283227,9858.429112
268.897039,-19.142581,133.998066,9858.429112
268.899533,95.712904,114.855485,9877.571693
268.902028,114.855485,114.855485,9877.571693
268.904522,76.570323,114.855485,9877.571693
268.907016,-0.000000,191.425808,9820.143950
268.909511,76.570323,210.568389,9820.143950
268.912005,57.427742,153.140646,9934.999435
268.914500,114.855485,153.140646,9820.143950
268.916994,76.570323,114.855485,9877.571693
268.919489,76.570323,114.855485,9762.716208
268.921983,76.570323,153.140646,9877.571693
