#time,accel_x,accel_y,accel_z
249.220900,19.142581,133.998066,9839.286531
249.224417,76.570323,172.283227,9820.143950
249.227935,76.570323,210.568389,9839.286531
249.231452,76.570323,172.283227,9762.716208
249.234969,19.142581,153.140646,9858.429112
249.238486,76.570323,210.568389,9858.429112
249.242003,57.427742,153.140646,9743.573627
249.245521,95.712904,229.710970,9762.716208
249.249038,57.427742,191.425808,9934.999435
249.252555,57.427742,287.138712,9896.714274
249.256072,57.427742,306.281293,9839.286531
249.259590,133.998066,248.853550,9801.001370
249.263107,95.712904,153.140646,9934.999435
249.266624,57.427742,114.855485,9896.714274
249.270141,76.570323,172.283227,9820.143950
249.273659,19.142581,95.712904,9877.571693
249.277176,57.427742,95.712904,9896.714274
249.280693,57.427742,57.427742,9858.429112
249.284210,57.427742,229.710970,9820.143950
249.287728,95.712904,191.425808,9839.286531
249.291245,38.285162,114.855485,9724.431046
249.294762,38.285162,38.285162,9762.716208
249.298279,133.998066,38.285162,9915.856854
249.301797,57.427742,153.140646,9743.573627
249.305314,38.285162,267.996131,9820.143950
249.308831,19.142581,153.140646,9896.714274
249.312348,57.427742,153.140646,9934.999435
249.315866,76.570323,133.998066,9973.284597
249.319383,153.140646,153.140646,10049.854920
249.322900,57.427742,248.853550,9992.427178
249.326417,38.285162,114.855485,9801.001370
249.329935,76.570323,76.570323,9915.856854
249.333452,38.285162,210.568389,9915.856854
249.336969,19.142581,172.283227,9781.858789
249.340486,95.712904,210.568389,9820.143950
249.343044,76.570323,210.568389,9762.716208
249.345601,57.427742,153.140646,9743.573627
249.348159,133.998066,210.568389,9801.001370
249.350717,76.570323,76.570323,9781.858789
249.353274,76.570323,95.712904,9743.573627
249.355832,76.570323,153.140646,9762.716208
249.358389,19.142581,153.140646,9781.858789
249.360947,76.570323,210.568389,9820.143950
249.363504,114.855485,153.140646,9954.142016
249.366062,38.285162,191.425808,9877.571693
249.368620,19.142581,191.425808,9896.714274
249.371177,114.855485,267.996131,10011.569758
249.373735,76.570323,153.140646,9877.571693
249.376292,76.570323,153.140646,9877.571693
249.378850,133.998066,114.855485,9858.429112
249.381407,38.285162,229.710970,9896.714274
249.383965,114.855485,153.140646,9858.429112
249.386523,19.142581,153.140646,9858.429112
249.389080,19.142581,172.283227,9820.143950
249.391638,19.142581,153.140646,9839.286531
249.394195,76.570323,153.140646,9762.716208
249.396753,38.285162,133.998066,9762.716208
249.399310,57.427742,95.712904,9858.429112
249.401868,95.712904,95.712904,9858.429112
249.404426,-0.000000,133.998066,9839.286531
249.406983,57.427742,114.855485,9896.714274
249.409541,19.142581,191.425808,9839.286531
249.412098,38.285162,248.853550,9820.143950
249.414656,191.425808,153.140646,9801.001370
249.417214,38.285162,133.998066,9877.571693
249.419771,76.570323,172.283227,9858.429112
249.422329,19.142581,248.853550,9858.429112
249.424886,76.570323,172.283227,9858.429112
249.427444,57.427742,229.710970,9896.714274
249.430001,114.855485,229.710970,9877.571693
249.432559,19.142581,229.710970,9934.999435
249.435117,76.570323,153.140646,9839.286531
249.437674,57.427742,191.425808,9877.571693
249.440232,76.570323,172.283227,9877.571693
249.442789,38.285162,172.283227,9973.284597
249.445440,76.570323,172.283227,9801.001370
249.448081,76.570323,172.283227,9801.001370
249.450723,19.142581,153.140646,9896.714274
249.453364,114.855485,172.283227,9743.573627
249.456006,76.570323,172.283227,9762.716208
249.458647,76.570323,210.568389,9839.286531
249.461289,19.142581,153.140646,9801.001370
249.463930,76.570323,191.425808,9762.716208
249.466572,76.570323,114.855485,9801.001370
249.469213,76.570323,153.140646,9877.571693
249.471855,-19.142581,153.140646,9858.429112
249.474496,76.570323,114.855485,9839.286531
249.477138,57.427742,114.855485,9896.714274
249.479780,153.140646,229.710970,9896.714274
249.482421,114.855485,191.425808,9934.999435
249.485063,153.140646,95.712904,9896.714274
249.487704,133.998066,172.283227,9858.429112
249.490346,76.570323,114.855485,9934.999435
249.492987,76.570323,153.140646,9839.286531
249.495629,76.570323,114.855485,9877.571693
249.498270,191.425808,133.998066,9839.286531
249.500912,95.712904,114.855485,9839.286531
249.503553,-19.142581,133.998066,9839.286531
249.506195,76.570323,114.855485,9839.286531
249.508836,-0.000000,153.140646,9781.858789
249.511478,76.570323,153.140646,9839.286531
249.514119,19.142581,133.998066,9839.286531
249.516761,38.285162,114.855485,9801.001370
249.519402,76.570323,172.283227,9858.429112
249.522044,57.427742,172.283227,9858.429112
249.524686,76.570323,172.283227,9877.571693
249.527327,76.570323,210.568389,9839.286531
249.529969,133.998066,191.425808,9839.286531
249.532610,76.570323,133.998066,9896.714274
249.535252,172.283227,114.855485,9915.856854
249.537893,38.285162,76.570323,9762.716208
249.540535,57.427742,153.140646,9934.999435
249.543176,76.570323,191.425808,9896.714274
249.545818,57.427742,210.568389,9877.571693
249.548459,38.285162,210.568389,10011.569758
249.551103,57.427742,172.283227,9915.856854
249.553747,19.142581,153.140646,9839.286531
249.556392,19.142581,191.425808,9781.858789
249.559036,76.570323,210.568389,9858.429112
249.561680,76.570323,172.283227,9820.143950
249.564324,38.285162,76.570323,9877.571693
249.566968,114.855485,114.855485,9820.143950
249.569612,76.570323,210.568389,9801.001370
249.572256,19.142581,191.425808,9858.429112
249.574900,114.855485,114.855485,9762.716208
249.577544,38.285162,76.570323,9839.286531
249.580188,76.570323,172.283227,9858.429112
249.582833,38.285162,267.996131,9820.143950
249.585477,76.570323,172.283227,9762.716208
249.588121,114.855485,172.283227,9877.571693
249.590765,133.998066,172.283227,9877.571693
249.593409,76.570323,210.568389,9839.286531
249.596053,57.427742,133.998066,9934.999435
249.598697,114.855485,172.283227,9877.571693
249.601341,19.142581,191.425808,9896.714274
249.603985,153.140646,210.568389,9915.856854
249.606629,153.140646,191.425808,9934.999435
249.609274,133.998066,114.855485,9877.571693
249.611918,114.855485,153.140646,9820.143950
249.614562,19.142581,210.568389,9801.001370
249.617206,76.570323,210.568389,9820.143950
249.619850,114.855485,210.568389,9858.429112
249.622494,19.142581,153.140646,9858.429112
249.625138,-0.000000,133.998066,9762.716208
249.627782,95.712904,210.568389,9762.716208
249.630426,76.570323,210.568389,9877.571693
249.633070,19.142581,133.998066,9858.429112
249.635715,19.142581,210.568389,9801.001370
249.638359,114.855485,210.568389,9858.429112
249.641003,76.570323,210.568389,9839.286531
249.643647,38.285162,76.570323,9858.429112
249.646291,57.427742,95.712904,9896.714274
249.648935,95.712904,95.712904,9839.286531
249.651579,57.427742,229.710970,9839.286531
249.654223,76.570323,114.855485,9762.716208
249.656842,76.570323,153.140646,9858.429112
249.659460,114.855485,153.140646,9934.999435
249.662078,172.283227,248.853550,9934.999435
249.664697,57.427742,210.568389,9820.143950
249.667315,76.570323,229.710970,9877.571693
249.669934,95.712904,153.140646,9877.571693
249.672552,114.855485,172.283227,9858.429112
249.675170,19.142581,133.998066,9839.286531
249.677789,114.855485,95.712904,9839.286531
249.680407,19.142581,191.425808,9839.286531
249.683026,76.570323,114.855485,9762.716208
249.685644,57.427742,172.283227,9839.286531
249.688263,95.712904,172.283227,9820.143950
249.690881,76.570323,114.855485,9762.716208
249.693499,76.570323,172.283227,9858.429112
249.696118,38.285162,76.570323,9877.571693
249.698736,76.570323,210.568389,9858.429112
249.701355,19.142581,191.425808,9896.714274
249.703973,19.142581,210.568389,9877.571693
249.706591,19.142581,133.998066,9839.286531
249.709210,76.570323,153.140646,9839.286531
249.711828,76.570323,172.283227,9858.429112
249.714447,19.142581,153.140646,9820.143950
249.717065,19.142581,248.853550,9858.429112
249.719684,76.570323,210.568389,9820.143950
249.722302,76.570323,229.710970,9877.571693
249.724920,76.570323,191.425808,9858.429112
249.727539,38.285162,153.140646,9896.714274
249.730157,57.427742,229.710970,9801.001370
249.732776,76.570323,172.283227,9820.143950
249.735394,57.427742,95.712904,9839.286531
249.738012,76.570323,210.568389,9762.716208
249.740631,-0.000000,191.425808,9858.429112
249.743249,19.142581,191.425808,9896.714274
249.745868,19.142581,229.710970,9877.571693
249.748486,76.570323,172.283227,9858.429112
249.751104,153.140646,210.568389,9839.286531
249.753723,38.285162,172.283227,9896.714274
249.756341,76.570323,172.283227,9858.429112
249.758960,76.570323,210.568389,9820.143950
249.761548,76.570323,172.283227,9877.571693
249.764137,153.140646,153.140646,9934.999435
249.766726,76.570323,210.568389,9801.001370
249.769315,76.570323,229.710970,9762.716208
249.771903,76.570323,210.568389,9858.429112
249.774492,76.570323,153.140646,9801.001370
249.777081,57.427742,172.283227,9877.571693
249.779670,76.570323,153.140646,9858.429112
249.782258,19.142581,153.140646,9839.286531
249.784847,19.142581,210.568389,9801.001370
249.787436,19.142581,191.425808,9839.286531
249.790025,-19.142581,153.140646,9801.001370
249.792614,95.712904,248.853550,9877.571693
249.795202,57.427742,95.712904,9839.286531
249.797791,76.570323,172.283227,9801.001370
249.800380,76.570323,172.283227,9839.286531
249.802969,76.570323,210.568389,9877.571693
249.805557,76.570323,229.710970,9820.143950
249.808146,76.570323,133.998066,9915.856854
249.810735,19.142581,210.568389,9781.858789
249.813324,76.570323,172.283227,9877.571693
249.815912,114.855485,114.855485,9877.571693
249.818501,19.142581,153.140646,9896.714274
249.821090,19.142581,153.140646,9801.001370
249.823679,76.570323,191.425808,9896.714274
249.826267,19.142581,153.140646,9896.714274
249.828856,19.142581,153.140646,9858.429112
249.831445,114.855485,114.855485,9858.429112
249.834034,19.142581,172.283227,9781.858789
249.836622,76.570323,153.140646,9762.716208
249.839211,57.427742,95.712904,9896.714274
249.841800,19.142581,114.855485,9839.286531
249.844389,95.712904,153.140646,9934.999435
249.846977,76.570323,210.568389,9820.143950
249.849566,57.427742,153.140646,9877.571693
249.852155,76.570323,191.425808,9858.429112
249.854744,76.570323,114.855485,9839.286531
249.857332,76.570323,114.855485,9877.571693
249.859921,95.712904,114.855485,9877.571693
249.862510,19.142581,114.855485,9877.571693
249.864906,76.570323,114.855485,9877.571693
249.867302,76.570323,153.140646,9820.143950
249.869698,57.427742,114.855485,9915.856854
249.872095,114.855485,210.568389,9877.571693
249.874491,114.855485,172.283227,9762.716208
249.876887,19.142581,153.140646,9801.001370
249.879283,76.570323,172.283227,9877.571693
249.881679,114.855485,153.140646,9877.571693
249.884075,114.855485,76.570323,9896.714274
249.886471,114.855485,172.283227,9934.999435
249.888868,76.570323,114.855485,9839.286531
249.891264,57.427742,153.140646,9934.999435
249.893660,76.570323,210.568389,9858.429112
249.896056,76.570323,210.568389,9762.716208
249.898452,57.427742,133.998066,9877.571693
249.900848,57.427742,172.283227,9781.858789
249.903245,38.285162,133.998066,9858.429112
249.905641,19.142581,133.998066,9896.714274
249.908037,57.427742,153.140646,9762.716208
249.910433,76.570323,210.568389,9877.571693
249.912829,76.570323,114.855485,9801.001370
249.915225,57.427742,114.855485,9858.429112
249.917622,76.570323,172.283227,9839.286531
249.920018,76.570323,210.568389,9762.716208
249.922414,95.712904,153.140646,9934.999435
249.924810,95.712904,191.425808,9934.999435
249.927206,19.142581,133.998066,9896.714274
249.929602,38.285162,114.855485,9896.714274
249.931998,95.712904,114.855485,9858.429112
249.934395,76.570323,114.855485,9858.429112
249.936791,133.998066,153.140646,9858.429112
249.939187,19.142581,172.283227,9896.714274
249.941583,57.427742,95.712904,9858.429112
249.943979,153.140646,210.568389,9820.143950
249.946375,76.570323,172.283227,9839.286531
249.948772,95.712904,229.710970,9820.143950
249.951168,19.142581,191.425808,9858.429112
249.953564,19.142581,133.998066,9839.286531
249.955960,19.142581,172.283227,9801.001370
249.958356,114.855485,114.855485,9877.571693
249.960792,76.570323,172.283227,9858.429112
249.963229,57.427742,95.712904,9858.429112
249.965665,57.427742,191.425808,9877.571693
249.968101,57.427742,172.283227,9954.142016
249.970538,76.570323,153.140646,9820.143950
249.972974,76.570323,114.855485,9877.571693
249.975410,95.712904,210.568389,9877.571693
249.977846,57.427742,191.425808,9934.999435
249.980283,38.285162,210.568389,9896.714274
249.982719,76.570323,191.425808,9858.429112
249.985155,76.570323,172.283227,9781.858789
249.987592,76.570323,114.855485,9839.286531
249.990028,95.712904,229.710970,9762.716208
249.992464,76.570323,172.283227,9762.716208
249.994900,95.712904,172.283227,9801.001370
249.997337,95.712904,210.568389,9820.143950
249.999773,76.570323,191.425808,9915.856854
250.002209,76.570323,172.283227,9877.571693
250.004645,38.285162,76.570323,9801.001370
250.007082,114.855485,153.140646,9820.143950
250.009518,76.570323,172.283227,9858.429112
250.011954,76.570323,114.855485,9877.571693
250.014391,114.855485,114.855485,9820.143950
250.016827,76.570323,210.568389,9839.286531
250.019263,191.425808,172.283227,9820.143950
250.021699,76.570323,210.568389,9858.429112
250.024136,76.570323,210.568389,9839.286531
250.026572,57.427742,95.712904,9858.429112
250.029008,153.140646,210.568389,9934.999435
250.031445,19.142581,114.855485,9934.999435
250.033881,38.285162,76.570323,9801.001370
250.036317,95.712904,114.855485,9762.716208
250.038753,38.285162,172.283227,9915.856854
250.041190,95.712904,114.855485,9820.143950
250.043626,114.855485,229.710970,9839.286531
250.046062,76.570323,210.568389,9858.429112
250.048499,57.427742,133.998066,9934.999435
250.050935,38.285162,76.570323,9858.429112
250.053371,76.570323,172.283227,9839.286531
250.055807,76.570323,153.140646,9877.571693
250.058143,19.142581,133.998066,9781.858789
250.060478,76.570323,153.140646,9877.571693
250.062813,76.570323,153.140646,9877.571693
250.065148,38.285162,172.283227,9762.716208
250.067483,76.570323,114.855485,9762.716208
250.069818,57.427742,114.855485,9839.286531
250.072154,76.570323,153.140646,9877.571693
250.074489,95.712904,114.855485,9839.286531
250.076824,19.142581,153.140646,9896.714274
250.079159,19.142581,191.425808,9858.429112
250.081494,76.570323,229.710970,9839.286531
250.083829,57.427742,153.140646,9934.999435
250.086164,57.427742,114.855485,9781.858789
250.088500,95.712904,114.855485,9820.143950
250.090835,76.570323,172.283227,9877.571693
250.093170,76.570323,172.283227,9820.143950
250.095505,76.570323,210.568389,9877.571693
250.097840,19.142581,153.140646,9896.714274
250.100175,76.570323,114.855485,9820.143950
250.102511,19.142581,172.283227,9781.858789
250.104846,76.570323,133.998066,9781.858789
250.107181,76.570323,114.855485,9820.143950
250.109516,76.570323,153.140646,9801.001370
250.111851,76.570323,210.568389,9762.716208
250.114186,57.427742,172.283227,9934.999435
250.116522,57.427742,210.568389,9934.999435
250.118857,76.570323,172.283227,9896.714274
250.121192,38.285162,267.996131,9820.143950
250.123527,76.570323,210.568389,9762.716208
250.125862,114.855485,114.855485,9839.286531
250.128197,114.855485,210.568389,9877.571693
250.130533,19.142581,153.140646,9839.286531
250.132868,76.570323,210.568389,9877.571693
250.135203,76.570323,191.425808,9839.286531
250.137538,76.570323,172.283227,9858.429112
250.139873,19.142581,191.425808,9801.001370
250.142208,57.427742,153.140646,9934.999435
250.144544,95.712904,191.425808,9762.716208
250.146879,114.855485,172.283227,9762.716208
250.149214,19.142581,191.425808,9858.429112
250.151496,38.285162,114.855485,9896.714274
250.153777,114.855485,172.283227,9820.143950
250.156059,38.285162,133.998066,9801.001370
250.158341,19.142581,153.140646,9839.286531
250.160622,19.142581,191.425808,9801.001370
250.162904,76.570323,191.425808,9858.429112
250.165186,114.855485,210.568389,9839.286531
250.167467,19.142581,191.425808,9801.001370
250.169749,76.570323,172.283227,9820.143950
250.172031,76.570323,153.140646,9820.143950
250.174312,-0.000000,133.998066,9896.714274
250.176594,57.427742,191.425808,9877.571693
250.178876,95.712904,210.568389,9820.143950
250.181158,76.570323,172.283227,9820.143950
250.183439,57.427742,153.140646,9877.571693
250.185721,76.570323,76.570323,9896.714274
250.188003,76.570323,114.855485,9820.143950
250.190284,76.570323,114.855485,9858.429112
250.192566,114.855485,172.283227,9877.571693
250.194848,76.570323,229.710970,9820.143950
250.197129,76.570323,248.853550,9801.001370
250.199411,76.570323,172.283227,9858.429112
250.201693,114.855485,172.283227,9877.571693
250.203975,19.142581,153.140646,9801.001370
250.206256,19.142581,133.998066,9896.714274
250.208538,76.570323,210.568389,9877.571693
250.210820,76.570323,229.710970,9877.571693
250.213101,38.285162,133.998066,9762.716208
250.215383,76.570323,210.568389,9762.716208
250.217665,76.570323,114.855485,9858.429112
250.219946,57.427742,95.712904,9801.001370
250.222228,19.142581,191.425808,9858.429112
250.224510,76.570323,172.283227,9820.143950
250.226791,95.712904,172.283227,9762.716208
250.229073,76.570323,210.568389,9858.429112
250.231355,57.427742,172.283227,9801.001370
250.233637,76.570323,210.568389,9839.286531
250.235918,133.998066,191.425808,9801.001370
250.238200,76.570323,114.855485,9801.001370
250.240482,95.712904,172.283227,9820.143950
250.242739,57.427742,114.855485,9858.429112
250.244997,76.570323,172.283227,9877.571693
250.247254,76.570323,210.568389,9839.286531
250.249511,76.570323,191.425808,9858.429112
250.251769,76.570323,153.140646,9877.571693
250.254026,76.570323,229.710970,9820.143950
250.256284,76.570323,210.568389,9762.716208
250.258541,76.570323,191.425808,9801.001370
250.260799,76.570323,172.283227,9877.571693
250.263056,76.570323,210.568389,9839.286531
250.265314,57.427742,210.568389,9858.429112
250.267571,76.570323,153.140646,9858.429112
250.269829,19.142581,133.998066,9820.143950
250.272086,-19.142581,133.998066,9877.571693
250.274343,76.570323,191.425808,9858.429112
250.276601,19.142581,191.425808,9801.001370
250.278858,57.427742,114.855485,9896.714274
250.281116,76.570323,172.283227,9877.571693
250.283373,57.427742,133.998066,9934.999435
250.285631,76.570323,172.283227,9877.571693
250.287888,95.712904,210.568389,9820.143950
250.290146,76.570323,114.855485,9858.429112
250.292403,38.285162,133.998066,9820.143950
250.294661,76.570323,172.283227,9839.286531
250.296918,76.570323,210.568389,9781.858789
250.299176,114.855485,172.283227,9896.714274
250.301433,95.712904,172.283227,9801.001370
250.303690,76.570323,172.283227,9839.286531
250.305948,57.427742,153.140646,9877.571693
250.308205,114.855485,114.855485,9839.286531
250.310463,57.427742,191.425808,9877.571693
250.312720,95.712904,191.425808,9877.571693
250.314978,76.570323,210.568389,9877.571693
250.317235,19.142581,191.425808,9839.286531
250.319493,76.570323,172.283227,9877.571693
250.321750,19.142581,133.998066,9801.001370
250.324008,114.855485,114.855485,9801.001370
250.326265,153.140646,210.568389,9801.001370
250.328523,19.142581,248.853550,9858.429112
250.330780,76.570323,210.568389,9877.571693
250.333124,76.570323,172.283227,9839.286531
250.335468,76.570323,114.855485,9877.571693
250.337812,114.855485,172.283227,9858.429112
250.340155,19.142581,153.140646,9781.858789
250.342499,76.570323,114.855485,9877.571693
250.344843,57.427742,114.855485,9781.858789
250.347187,57.427742,95.712904,9801.001370
250.349531,57.427742,153.140646,9934.999435
250.351875,76.570323,133.998066,9896.714274
250.354219,19.142581,114.855485,9877.571693
250.356562,19.142581,248.853550,9781.858789
250.358906,19.142581,172.283227,9877.571693
250.361250,76.570323,114.855485,9877.571693
250.363594,95.712904,172.283227,9858.429112
250.365938,76.570323,172.283227,9801.001370
250.368282,76.570323,153.140646,9915.856854
250.370626,114.855485,95.712904,9896.714274
250.372970,114.855485,153.140646,9839.286531
250.375313,19.142581,153.140646,9801.001370
250.377657,95.712904,133.998066,9934.999435
250.380001,57.427742,153.140646,9934.999435
250.382345,57.427742,133.998066,9934.999435
250.384689,38.285162,133.998066,9877.571693
250.387033,76.570323,114.855485,9839.286531
250.389377,76.570323,172.283227,9839.286531
250.391720,76.570323,114.855485,9877.571693
250.394064,76.570323,114.855485,9820.143950
250.396408,76.570323,210.568389,9820.143950
250.398752,38.285162,172.283227,9915.856854
250.401096,-19.142581,153.140646,9820.143950
250.403440,114.855485,210.568389,9801.001370
250.405784,57.427742,191.425808,9877.571693
250.408127,95.712904,133.998066,9820.143950
250.410471,95.712904,210.568389,9858.429112
250.412815,76.570323,172.283227,9934.999435
250.415159,19.142581,153.140646,9801.001370
250.417503,57.427742,153.140646,9877.571693
250.419847,76.570323,114.855485,9839.286531
250.422191,95.712904,95.712904,9896.714274
250.424535,95.712904,95.712904,9896.714274
250.426951,114.855485,172.283227,9877.571693
250.429357,76.570323,153.140646,9877.571693
250.431764,114.855485,172.283227,9820.143950
250.434171,76.570323,210.568389,9877.571693
250.436577,76.570323,114.855485,9858.429112
250.438984,57.427742,57.427742,9781.858789
250.441391,38.285162,76.570323,9762.716208
250.443797,114.855485,172.283227,9762.716208
250.446204,38.285162,172.283227,9896.714274
250.448611,76.570323,153.140646,9839.286531
250.451018,76.570323,172.283227,9858.429112
250.453424,19.142581,191.425808,9858.429112
250.455831,95.712904,172.283227,9820.143950
250.458238,114.855485,114.855485,9858.429112
250.460644,19.142581,153.140646,9801.001370
250.463051,76.570323,172.283227,9877.571693
250.465458,114.855485,210.568389,9801.001370
250.467864,114.855485,172.283227,9820.143950
250.470271,153.140646,153.140646,9934.999435
250.472678,19.142581,191.425808,9896.714274
250.475084,76.570323,210.568389,9762.716208
250.477491,114.855485,95.712904,9858.429112
250.479898,57.427742,95.712904,9858.429112
250.482304,-0.000000,229.710970,9839.286531
250.484711,76.570323,210.568389,9762.716208
250.487118,19.142581,210.568389,9877.571693
250.489524,114.855485,172.283227,9877.571693
250.491931,76.570323,153.140646,9877.571693
250.494338,95.712904,210.568389,9762.716208
250.496744,19.142581,153.140646,9820.143950
250.499151,76.570323,172.283227,9839.286531
250.501558,19.142581,191.425808,9839.286531
250.503964,57.427742,133.998066,9877.571693
250.506371,95.712904,210.568389,9858.429112
250.508778,57.427742,114.855485,9858.429112
250.511184,95.712904,153.140646,9934.999435
250.513591,19.142581,133.998066,9801.001370
250.515998,76.570323,172.283227,9877.571693
250.518405,76.570323,172.283227,9801.001370
250.520811,19.142581,210.568389,9896.714274
250.523263,19.142581,133.998066,9801.001370
250.525714,19.142581,153.140646,9858.429112
250.528166,38.285162,133.998066,9839.286531
250.530617,114.855485,153.140646,9820.143950
250.533068,114.855485,172.283227,9858.429112
250.535520,38.285162,76.570323,9877.571693
250.537971,76.570323,172.283227,9858.429112
250.540423,57.427742,76.570323,9839.286531
250.542874,76.570323,114.855485,9839.286531
250.545326,57.427742,95.712904,9839.286531
250.547777,76.570323,172.283227,9801.001370
250.550229,76.570323,229.710970,9877.571693
250.552680,57.427742,133.998066,9934.999435
250.555131,57.427742,153.140646,9934.999435
250.557583,76.570323,210.568389,9839.286531
250.560034,114.855485,172.283227,9858.429112
250.562486,76.570323,114.855485,9877.571693
250.564937,57.427742,210.568389,9915.856854
250.567389,76.570323,114.855485,9877.571693
250.569840,95.712904,172.283227,9801.001370
250.572292,76.570323,210.568389,9858.429112
250.574743,76.570323,229.710970,9877.571693
250.577195,114.855485,153.140646,9839.286531
250.579646,114.855485,57.427742,9858.429112
250.582097,114.855485,114.855485,9877.571693
250.584549,114.855485,114.855485,9820.143950
250.587000,-0.000000,114.855485,9896.714274
250.589452,76.570323,114.855485,9820.143950
250.591903,76.570323,114.855485,9820.143950
250.594355,133.998066,172.283227,9858.429112
250.596806,114.855485,114.855485,9858.429112
250.599258,76.570323,172.283227,9858.429112
250.601709,76.570323,172.283227,9839.286531
250.604160,95.712904,133.998066,9934.999435
250.606612,95.712904,95.712904,9839.286531
250.609063,38.285162,76.570323,9820.143950
250.611515,76.570323,210.568389,9839.286531
250.613966,57.427742,153.140646,9934.999435
250.616418,76.570323,210.568389,9858.429112
250.618869,114.855485,229.710970,9820.143950
250.621352,76.570323,153.140646,9877.571693
250.623834,19.142581,153.140646,9839.286531
250.626317,19.142581,153.140646,9896.714274
250.628799,76.570323,153.140646,9820.143950
250.631282,76.570323,153.140646,9781.858789
250.633764,19.142581,153.140646,9896.714274
250.636247,76.570323,172.283227,9877.571693
250.638729,19.142581,172.283227,9896.714274
250.641212,38.285162,133.998066,9858.429112
250.643694,19.142581,133.998066,9896.714274
250.646176,57.427742,210.568389,9896.714274
250.648659,76.570323,210.568389,9820.143950
250.651141,76.570323,153.140646,9877.571693
250.653624,76.570323,229.710970,9877.571693
250.656106,57.427742,210.568389,9934.999435
250.658589,114.855485,153.140646,9858.429112
250.661071,38.285162,172.283227,9915.856854
250.663554,19.142581,210.568389,9801.001370
250.666036,-0.000000,76.570323,9877.571693
250.668519,19.142581,95.712904,9877.571693
250.671001,95.712904,210.568389,9839.286531
250.673484,19.142581,172.283227,9858.429112
250.675966,76.570323,172.283227,9801.001370
250.678449,19.142581,153.140646,9896.714274
250.680931,38.285162,210.568389,9954.142016
250.683414,76.570323,210.568389,9877.571693
250.685896,19.142581,191.425808,9781.858789
250.688379,76.570323,191.425808,9858.429112
250.690861,57.427742,153.140646,9877.571693
250.693344,95.712904,210.568389,9858.429112
250.695826,114.855485,229.710970,9820.143950
250.698309,76.570323,172.283227,9820.143950
250.700791,95.712904,229.710970,9858.429112
250.703274,76.570323,114.855485,9877.571693
250.705756,19.142581,153.140646,9801.001370
250.708239,57.427742,133.998066,9820.143950
250.710721,76.570323,114.855485,9839.286531
250.713204,95.712904,229.710970,9820.143950
250.715686,57.427742,95.712904,9801.001370
250.718169,133.998066,172.283227,9839.286531
250.720599,76.570323,172.283227,9858.429112
250.723030,19.142581,191.425808,9896.714274
250.725460,38.285162,76.570323,9762.716208
250.727890,38.285162,172.283227,9896.714274
250.730321,57.427742,95.712904,9896.714274
250.732751,95.712904,210.568389,9858.429112
250.735182,76.570323,191.425808,9820.143950
250.737612,19.142581,172.283227,9839.286531
250.740043,38.285162,172.283227,9915.856854
250.742473,133.998066,76.570323,9915.856854
250.744904,76.570323,153.140646,9896.714274
250.747334,133.998066,114.855485,9801.001370
250.749765,95.712904,172.283227,9820.143950
250.752195,76.570323,172.283227,9801.001370
250.754626,38.285162,172.283227,9973.284597
250.757056,76.570323,153.140646,9858.429112
250.759487,19.142581,248.853550,9839.286531
250.761917,19.142581,172.283227,9858.429112
250.764347,76.570323,172.283227,9858.429112
250.766778,76.570323,114.855485,9820.143950
250.769208,95.712904,95.712904,9896.714274
250.771639,76.570323,114.855485,9877.571693
250.774069,-19.142581,133.998066,9801.001370
250.776500,38.285162,133.998066,9762.716208
250.778930,114.855485,133.998066,9896.714274
250.781361,76.570323,153.140646,9839.286531
250.783791,114.855485,172.283227,9877.571693
250.786222,19.142581,133.998066,9896.714274
250.788652,57.427742,153.140646,9954.142016
250.791083,95.712904,172.283227,9801.001370
250.793513,76.570323,172.283227,9801.001370
250.795944,76.570323,172.283227,9820.143950
250.798374,76.570323,172.283227,9839.286531
250.800805,76.570323,114.855485,9839.286531
250.803235,76.570323,210.568389,9820.143950
250.805665,114.855485,114.855485,9858.429112
250.808096,19.142581,133.998066,9896.714274
250.810526,114.855485,210.568389,9820.143950
250.812957,76.570323,172.283227,9762.716208
250.815387,38.285162,172.283227,9839.286531
250.817854,153.140646,153.140646,9877.571693
250.820320,76.570323,114.855485,9839.286531
250.822786,19.142581,191.425808,9858.429112
250.825253,114.855485,210.568389,9820.143950
250.827719,57.427742,191.425808,9934.999435
250.830185,76.570323,172.283227,9801.001370
250.832652,76.570323,114.855485,9820.143950
250.835118,57.427742,114.855485,9858.429112
250.837584,76.570323,153.140646,9820.143950
250.840051,95.712904,153.140646,9858.429112
250.842517,114.855485,172.283227,9858.429112
250.844983,95.712904,114.855485,9820.143950
250.847449,38.285162,76.570323,9877.571693
250.849916,-19.142581,210.568389,9896.714274
250.852382,76.570323,114.855485,9839.286531
250.854848,76.570323,172.283227,9858.429112
250.857315,19.142581,133.998066,9896.714274
250.859781,76.570323,153.140646,9820.143950
250.862247,19.142581,248.853550,9781.858789
250.864714,114.855485,210.568389,9858.429112
250.867180,114.855485,229.710970,9820.143950
250.869646,153.140646,153.140646,9877.571693
250.872113,95.712904,133.998066,9934.999435
250.874579,95.712904,114.855485,9820.143950
250.877045,95.712904,210.568389,9858.429112
250.879512,57.427742,191.425808,9934.999435
250.881978,76.570323,229.710970,9858.429112
250.884444,76.570323,210.568389,9858.429112
250.886910,95.712904,76.570323,9896.714274
250.889377,76.570323,76.570323,9915.856854
250.891843,57.427742,153.140646,9934.999435
250.894309,95.712904,114.855485,9858.429112
250.896776,76.570323,133.998066,9839.286531
250.899242,19.142581,248.853550,9781.858789
250.901708,114.855485,172.283227,9858.429112
250.904175,114.855485,114.855485,9820.143950
250.906641,19.142581,172.283227,9801.001370
250.909107,114.855485,153.140646,9858.429112
250.911574,76.570323,172.283227,9762.716208
250.914040,95.712904,153.140646,9858.429112
250.916533,38.285162,76.570323,9801.001370
250.919026,19.142581,153.140646,9801.001370
250.921519,76.570323,210.568389,9896.714274
250.924011,19.142581,153.140646,9858.429112
250.926504,76.570323,210.568389,9820.143950
250.928997,57.427742,95.712904,9858.429112
250.931490,19.142581,95.712904,9877.571693
250.933983,76.570323,191.425808,9877.571693
250.936476,76.570323,76.570323,9915.856854
250.938969,76.570323,229.710970,9820.143950
250.941462,114.855485,114.855485,9877.571693
250.943955,76.570323,210.568389,9801.001370
250.946447,19.142581,172.283227,9781.858789
250.948940,76.570323,210.568389,9820.143950
250.951433,57.427742,153.140646,9858.429112
250.953926,57.427742,153.140646,9858.429112
250.956419,95.712904,153.140646,9877.571693
250.958912,76.570323,114.855485,9820.143950
250.961405,76.570323,114.855485,9858.429112
250.963898,114.855485,210.568389,9858.429112
250.966390,57.427742,133.998066,9877.571693
250.968883,76.570323,133.998066,9858.429112
250.971376,76.570323,153.140646,9762.716208
250.973869,57.427742,153.140646,9934.999435
250.976362,76.570323,172.283227,9877.571693
250.978855,76.570323,210.568389,9820.143950
250.981348,153.140646,95.712904,9839.286531
250.983841,76.570323,153.140646,9839.286531
250.986334,76.570323,172.283227,9820.143950
250.988826,19.142581,210.568389,9896.714274
250.991319,76.570323,114.855485,9762.716208
250.993812,191.425808,248.853550,9801.001370
250.996305,76.570323,172.283227,9820.143950
250.998798,76.570323,172.283227,9877.571693
251.001291,76.570323,114.855485,9858.429112
251.003784,153.140646,95.712904,9896.714274
251.006277,19.142581,248.853550,9839.286531
251.008769,76.570323,172.283227,9839.286531
251.011262,95.712904,114.855485,9839.286531
251.013755,-0.000000,172.283227,9858.429112
251.016203,76.570323,153.140646,9839.286531
251.018651,76.570323,172.283227,9820.143950
251.021099,76.570323,210.568389,9858.429112
251.023548,114.855485,95.712904,9858.429112
251.025996,76.570323,172.283227,9877.571693
251.028444,19.142581,153.140646,9781.858789
251.030892,76.570323,153.140646,9858.429112
251.033340,57.427742,172.283227,9934.999435
251.035788,76.570323,172.283227,9858.429112
251.038236,19.142581,210.568389,9801.001370
251.040684,114.855485,172.283227,9801.001370
251.043132,57.427742,95.712904,9839.286531
251.045580,114.855485,114.855485,9839.286531
251.048028,114.855485,153.140646,9801.001370
251.050477,76.570323,191.425808,9839.286531
251.052925,19.142581,191.425808,9896.714274
251.055373,-19.142581,153.140646,9896.714274
251.057821,19.142581,172.283227,9801.001370
251.060269,19.142581,210.568389,9801.001370
251.062717,76.570323,153.140646,9820.143950
251.065165,153.140646,153.140646,9934.999435
251.067613,76.570323,191.425808,9877.571693
251.070061,19.142581,133.998066,9839.286531
251.072509,-57.427742,153.140646,9781.858789
251.074957,76.570323,210.568389,9762.716208
251.077406,114.855485,114.855485,9877.571693
251.079854,153.140646,172.283227,9858.429112
251.082302,19.142581,172.283227,9858.429112
251.084750,-19.142581,172.283227,9896.714274
251.087198,76.570323,172.283227,9801.001370
251.089646,114.855485,172.283227,9877.571693
251.092094,95.712904,153.140646,9839.286531
251.094542,19.142581,248.853550,9858.429112
251.096990,19.142581,172.283227,9839.286531
251.099438,114.855485,172.283227,9762.716208
251.101886,76.570323,191.425808,9839.286531
251.104335,76.570323,114.855485,9839.286531
251.106783,57.427742,210.568389,9934.999435
251.109231,19.142581,133.998066,9801.001370
251.111679,76.570323,172.283227,9877.571693
251.114097,76.570323,210.568389,9858.429112
251.116515,76.570323,210.568389,9820.143950
251.118933,76.570323,172.283227,9858.429112
251.121351,133.998066,229.710970,9877.571693
251.123769,57.427742,114.855485,9896.714274
251.126187,76.570323,210.568389,9762.716208
251.128605,76.570323,172.283227,9762.716208
251.131023,76.570323,114.855485,9858.429112
251.133441,95.712904,114.855485,9896.714274
251.135859,19.142581,133.998066,9896.714274
251.138277,114.855485,153.140646,9762.716208
251.140695,19.142581,191.425808,9801.001370
251.143113,76.570323,210.568389,9820.143950
251.145531,19.142581,133.998066,9801.001370
251.147949,95.712904,191.425808,9858.429112
251.150367,76.570323,153.140646,9877.571693
251.152785,19.142581,248.853550,9801.001370
251.155203,76.570323,133.998066,9896.714274
251.157621,19.142581,172.283227,9820.143950
251.160039,76.570323,114.855485,9839.286531
251.162457,95.712904,114.855485,9877.571693
251.164875,114.855485,153.140646,9934.999435
251.167293,19.142581,248.853550,9858.429112
251.169711,19.142581,191.425808,9781.858789
251.172129,19.142581,153.140646,9820.143950
251.174547,114.855485,153.140646,9877.571693
251.176965,76.570323,172.283227,9820.143950
251.179383,19.142581,153.140646,9858.429112
251.181801,76.570323,172.283227,9762.716208
251.184219,57.427742,153.140646,9934.999435
251.186637,95.712904,172.283227,9839.286531
251.189055,133.998066,153.140646,9877.571693
251.191473,133.998066,210.568389,9877.571693
251.193891,76.570323,172.283227,9820.143950
251.196309,76.570323,172.283227,9877.571693
251.198727,76.570323,153.140646,9858.429112
251.201145,114.855485,172.283227,9820.143950
251.203563,95.712904,172.283227,9858.429112
251.205981,19.142581,172.283227,9781.858789
251.208399,76.570323,191.425808,9820.143950
251.210856,114.855485,210.568389,9877.571693
251.213314,153.140646,114.855485,9858.429112
251.215771,76.570323,210.568389,9839.286531
251.218229,76.570323,153.140646,9820.143950
251.220687,76.570323,153.140646,9820.143950
251.223144,76.570323,114.855485,9877.571693
251.225602,-76.570323,114.855485,9896.714274
251.228059,38.285162,172.283227,9915.856854
251.230517,57.427742,210.568389,9896.714274
251.232974,76.570323,210.568389,9820.143950
251.235432,76.570323,172.283227,9858.429112
251.237890,133.998066,153.140646,9801.001370
251.240347,38.285162,133.998066,9839.286531
251.242805,-0.000000,76.570323,9839.286531
251.245262,-19.142581,76.570323,9762.716208
251.247720,19.142581,172.283227,9820.143950
251.250177,76.570323,229.710970,9839.286531
251.252635,76.570323,172.283227,9801.001370
251.255093,76.570323,172.283227,9877.571693
251.257550,57.427742,172.283227,9934.999435
251.260008,114.855485,172.283227,9877.571693
251.262465,-57.427742,172.283227,9820.143950
251.264923,76.570323,114.855485,9839.286531
251.267380,76.570323,172.283227,9858.429112
251.269838,76.570323,172.283227,9820.143950
251.272296,76.570323,153.140646,9858.429112
251.274753,95.712904,191.425808,9934.999435
251.277211,95.712904,210.568389,9820.143950
251.279668,19.142581,191.425808,9858.429112
251.282126,38.285162,76.570323,9877.571693
251.284583,76.570323,172.283227,9839.286531
251.287041,57.427742,133.998066,9934.999435
251.289499,19.142581,191.425808,9801.001370
251.291956,76.570323,114.855485,9877.571693
251.294414,57.427742,210.568389,9858.429112
251.296871,38.285162,248.853550,9839.286531
251.299329,76.570323,210.568389,9877.571693
251.301786,57.427742,114.855485,9820.143950
251.304244,95.712904,229.710970,9801.001370
251.306701,76.570323,114.855485,9877.571693
251.309190,133.998066,114.855485,9858.429112
251.311679,76.570323,153.140646,9858.429112
251.314168,76.570323,172.283227,9858.429112
251.316657,76.570323,172.283227,9858.429112
251.319145,114.855485,172.283227,9858.429112
251.321634,76.570323,172.283227,9858.429112
251.324123,57.427742,191.425808,9877.571693
251.326612,19.142581,210.568389,9820.143950
251.329101,57.427742,153.140646,9877.571693
251.331589,76.570323,210.568389,9877.571693
251.334078,114.855485,172.283227,9839.286531
251.336567,19.142581,133.998066,9858.429112
251.339056,19.142581,153.140646,9858.429112
251.341545,19.142581,153.140646,9858.429112
251.344033,19.142581,133.998066,9801.001370
251.346522,76.570323,191.425808,9801.001370
251.349011,76.570323,210.568389,9839.286531
251.351500,57.427742,95.712904,9801.001370
251.353989,76.570323,229.710970,9820.143950
251.356477,133.998066,172.283227,9877.571693
251.358966,19.142581,133.998066,9858.429112
251.361455,76.570323,172.283227,9858.429112
251.363944,95.712904,210.568389,9820.143950
251.366432,76.570323,210.568389,9877.571693
251.368921,76.570323,210.568389,9877.571693
251.371410,19.142581,172.283227,9858.429112
251.373899,76.570323,172.283227,9858.429112
251.376388,95.712904,114.855485,9858.429112
251.378876,76.570323,153.140646,9877.571693
251.381365,57.427742,114.855485,9858.429112
251.383854,76.570323,172.283227,9896.714274
251.386343,76.570323,114.855485,9858.429112
251.388832,76.570323,210.568389,9877.571693
251.391320,38.285162,114.855485,9915.856854
251.393809,19.142581,153.140646,9801.001370
251.396298,76.570323,114.855485,9839.286531
251.398787,95.712904,191.425808,9934.999435
251.401276,57.427742,114.855485,9781.858789
251.403764,19.142581,133.998066,9801.001370
251.406253,57.427742,191.425808,9877.571693
251.408764,38.285162,210.568389,9915.856854
251.411276,-0.000000,153.140646,9858.429112
251.413788,95.712904,172.283227,9762.716208
251.416300,76.570323,172.283227,9839.286531
251.418812,76.570323,210.568389,9839.286531
251.421324,76.570323,172.283227,9858.429112
251.423836,114.855485,153.140646,9877.571693
251.426348,57.427742,114.855485,9820.143950
251.428861,76.570323,114.855485,9877.571693
251.431373,76.570323,114.855485,9877.571693
251.433885,19.142581,153.140646,9839.286531
251.436397,76.570323,229.710970,9839.286531
251.438909,76.570323,153.140646,9858.429112
251.441421,76.570323,229.710970,9839.286531
251.443933,133.998066,153.140646,9820.143950
251.446445,76.570323,172.283227,9839.286531
251.448958,76.570323,210.568389,9877.571693
251.451470,76.570323,114.855485,9877.571693
251.453982,19.142581,133.998066,9839.286531
251.456494,19.142581,153.140646,9820.143950
251.459006,19.142581,191.425808,9896.714274
251.461518,76.570323,172.283227,9762.716208
251.464030,172.283227,114.855485,9801.001370
251.466542,76.570323,191.425808,9858.429112
251.469055,-0.000000,191.425808,9820.143950
251.471567,76.570323,153.140646,9820.143950
251.474079,95.712904,114.855485,9820.143950
251.476591,114.855485,114.855485,9896.714274
251.479103,76.570323,210.568389,9877.571693
251.481615,38.285162,133.998066,9877.571693
251.484127,19.142581,191.425808,9801.001370
251.486639,19.142581,229.710970,9801.001370
251.489152,76.570323,172.283227,9877.571693
251.491664,76.570323,153.140646,9820.143950
251.494176,38.285162,76.570323,9820.143950
251.496688,19.142581,172.283227,9858.429112
251.499200,76.570323,114.855485,9877.571693
251.501712,19.142581,153.140646,9801.001370
251.504224,133.998066,210.568389,9820.143950
251.506736,76.570323,229.710970,9858.429112
251.509266,95.712904,153.140646,9877.571693
251.511795,76.570323,191.425808,9858.429112
251.514325,57.427742,76.570323,9820.143950
251.516854,38.285162,76.570323,9839.286531
251.519384,114.855485,172.283227,9820.143950
251.521913,95.712904,153.140646,9820.143950
251.524442,95.712904,114.855485,9877.571693
251.526972,57.427742,133.998066,9877.571693
251.529501,95.712904,229.710970,9801.001370
251.532031,95.712904,114.855485,9896.714274
251.534560,57.427742,95.712904,9858.429112
251.537090,76.570323,172.283227,9858.429112
251.539619,38.285162,114.855485,9896.714274
251.542149,95.712904,172.283227,9762.716208
251.544678,76.570323,210.568389,9858.429112
251.547207,19.142581,248.853550,9896.714274
251.549737,95.712904,210.568389,9877.571693
251.552266,19.142581,153.140646,9801.001370
251.554796,133.998066,114.855485,9820.143950
251.557325,95.712904,95.712904,9858.429112
251.559855,19.142581,210.568389,9801.001370
251.562384,76.570323,172.283227,9839.286531
251.564913,76.570323,114.855485,9858.429112
251.567443,76.570323,114.855485,9839.286531
251.569972,19.142581,153.140646,9896.714274
251.572502,114.855485,172.283227,9839.286531
251.575031,76.570323,172.283227,9858.429112
251.577561,95.712904,210.568389,9839.286531
251.580090,76.570323,153.140646,9877.571693
251.582620,38.285162,172.283227,9858.429112
251.585149,76.570323,210.568389,9820.143950
251.587678,76.570323,210.568389,9839.286531
251.590208,19.142581,172.283227,9839.286531
251.592737,57.427742,229.710970,9820.143950
251.595267,76.570323,114.855485,9762.716208
251.597796,57.427742,95.712904,9801.001370
251.600326,133.998066,210.568389,9820.143950
251.602855,19.142581,172.283227,9896.714274
251.605385,57.427742,95.712904,9781.858789
251.607914,57.427742,95.712904,9839.286531
251.610456,76.570323,210.568389,9820.143950
251.612998,38.285162,191.425808,9915.856854
251.615539,57.427742,95.712904,9896.714274
251.618081,114.855485,267.996131,9915.856854
251.620623,76.570323,153.140646,9858.429112
251.623165,57.427742,95.712904,9896.714274
251.625706,76.570323,172.283227,9762.716208
251.628248,76.570323,172.283227,9877.571693
251.630790,76.570323,172.283227,9858.429112
251.633332,76.570323,76.570323,9915.856854
251.635874,57.427742,95.712904,9839.286531
251.638415,114.855485,114.855485,9839.286531
251.640957,95.712904,172.283227,9820.143950
251.643499,38.285162,210.568389,9839.286531
251.646041,76.570323,191.425808,9839.286531
251.648582,76.570323,153.140646,9858.429112
251.651124,19.142581,153.140646,9839.286531
251.653666,76.570323,210.568389,9877.571693
251.656208,38.285162,153.140646,9896.714274
251.658750,76.570323,172.283227,9839.286531
251.661291,19.142581,153.140646,9839.286531
251.663833,114.855485,114.855485,9762.716208
251.666375,38.285162,153.140646,9820.143950
251.668917,76.570323,210.568389,9877.571693
251.671458,57.427742,114.855485,9839.286531
251.674000,76.570323,210.568389,9839.286531
251.676542,114.855485,172.283227,9877.571693
251.679084,95.712904,153.140646,9762.716208
251.681626,76.570323,172.283227,9858.429112
251.684167,19.142581,153.140646,9801.001370
251.686709,19.142581,133.998066,9858.429112
251.689251,95.712904,191.425808,9839.286531
251.691793,114.855485,191.425808,9877.571693
251.694334,19.142581,153.140646,9858.429112
251.696876,19.142581,172.283227,9896.714274
251.699418,76.570323,172.283227,9762.716208
251.701960,133.998066,76.570323,9915.856854
251.704502,95.712904,172.283227,9839.286531
251.707043,76.570323,172.283227,9839.286531
251.709585,76.570323,172.283227,9839.286531
251.712136,76.570323,133.998066,9915.856854
251.714686,38.285162,248.853550,9762.716208
251.717237,19.142581,153.140646,9801.001370
251.719788,57.427742,172.283227,9877.571693
251.722338,153.140646,210.568389,9877.571693
251.724889,76.570323,210.568389,9877.571693
251.727440,76.570323,172.283227,9820.143950
251.729990,76.570323,133.998066,9896.714274
251.732541,-0.000000,191.425808,9896.714274
251.735091,19.142581,191.425808,9820.143950
251.737642,19.142581,153.140646,9896.714274
251.740193,76.570323,172.283227,9839.286531
251.742743,19.142581,191.425808,9801.001370
251.745294,57.427742,153.140646,9934.999435
251.747845,19.142581,191.425808,9896.714274
251.750395,76.570323,153.140646,9877.571693
251.752946,38.285162,153.140646,9896.714274
251.755497,76.570323,172.283227,9820.143950
251.758047,-0.000000,153.140646,9858.429112
251.760598,76.570323,172.283227,9839.286531
251.763149,114.855485,229.710970,9762.716208
251.765699,57.427742,153.140646,9820.143950
251.768250,57.427742,191.425808,9934.999435
251.770800,76.570323,114.855485,9858.429112
251.773351,76.570323,210.568389,9762.716208
251.775902,76.570323,172.283227,9801.001370
251.778452,114.855485,114.855485,9934.999435
251.781003,114.855485,114.855485,9820.143950
251.783554,57.427742,114.855485,9896.714274
251.786104,76.570323,114.855485,9877.571693
251.788655,76.570323,210.568389,9820.143950
251.791206,76.570323,172.283227,9877.571693
251.793756,57.427742,153.140646,9934.999435
251.796307,76.570323,172.283227,9858.429112
251.798858,76.570323,153.140646,9820.143950
251.801408,19.142581,172.283227,9896.714274
251.803959,57.427742,114.855485,9801.001370
251.806509,76.570323,172.283227,9877.571693
251.809060,76.570323,210.568389,9820.143950
251.811611,76.570323,172.283227,9877.571693
251.814167,76.570323,210.568389,9801.001370
251.816724,57.427742,210.568389,9877.571693
251.819280,153.140646,95.712904,9839.286531
251.821836,114.855485,76.570323,9915.856854
251.824393,38.285162,133.998066,9801.001370
251.826949,76.570323,114.855485,9839.286531
251.829505,76.570323,229.710970,9858.429112
251.832062,76.570323,172.283227,9877.571693
251.834618,57.427742,114.855485,9858.429112
251.837175,114.855485,172.283227,9839.286531
251.839731,76.570323,229.710970,9820.143950
251.842287,76.570323,114.855485,9858.429112
251.844844,-0.000000,172.283227,9858.429112
251.847400,76.570323,172.283227,9820.143950
251.849957,19.142581,153.140646,9858.429112
251.852513,114.855485,229.710970,9762.716208
251.855069,57.427742,153.140646,9877.571693
251.857626,19.142581,153.140646,9801.001370
251.860182,95.712904,153.140646,9858.429112
251.862739,76.570323,191.425808,9820.143950
251.865295,76.570323,172.283227,9858.429112
251.867851,19.142581,153.140646,9896.714274
251.870408,114.855485,172.283227,9858.429112
251.872964,76.570323,172.283227,9877.571693
251.875520,95.712904,172.283227,9801.001370
251.878077,19.142581,210.568389,9839.286531
251.880633,19.142581,133.998066,9858.429112
251.883190,76.570323,210.568389,9858.429112
251.885746,76.570323,210.568389,9858.429112
251.888302,57.427742,114.855485,9781.858789
251.890859,19.142581,133.998066,9896.714274
251.893415,19.142581,191.425808,9820.143950
251.895972,19.142581,191.425808,9781.858789
251.898528,57.427742,153.140646,10011.569758
251.901084,57.427742,95.712904,9781.858789
251.903641,57.427742,114.855485,9839.286531
251.906197,38.285162,76.570323,9820.143950
251.908753,76.570323,114.855485,9877.571693
251.911310,19.142581,191.425808,9896.714274
251.913866,38.285162,210.568389,9896.714274
251.916426,38.285162,248.853550,9839.286531
251.918986,76.570323,210.568389,9820.143950
251.921546,76.570323,172.283227,9820.143950
251.924106,76.570323,153.140646,9781.858789
251.926666,19.142581,172.283227,9896.714274
251.929225,38.285162,153.140646,9915.856854
251.931785,38.285162,133.998066,9858.429112
251.934345,76.570323,172.283227,9858.429112
251.936905,38.285162,172.283227,9915.856854
251.939465,57.427742,229.710970,9839.286531
251.942025,114.855485,210.568389,9877.571693
251.944585,76.570323,153.140646,9762.716208
251.947145,95.712904,114.855485,9801.001370
251.949704,38.285162,133.998066,9877.571693
251.952264,76.570323,76.570323,9915.856854
251.954824,38.285162,248.853550,9820.143950
251.957384,76.570323,210.568389,9877.571693
251.959944,114.855485,172.283227,9762.716208
251.962504,133.998066,229.710970,9839.286531
251.965064,76.570323,114.855485,9762.716208
251.967624,76.570323,172.283227,9820.143950
251.970183,57.427742,95.712904,9896.714274
251.972743,19.142581,172.283227,9820.143950
251.975303,76.570323,210.568389,9820.143950
251.977863,76.570323,114.855485,9820.143950
251.980423,76.570323,172.283227,9877.571693
251.982983,57.427742,95.712904,9820.143950
251.985543,19.142581,172.283227,9820.143950
251.988103,114.855485,172.283227,9877.571693
251.990662,76.570323,229.710970,9858.429112
251.993222,76.570323,114.855485,9762.716208
251.995782,57.427742,133.998066,9934.999435
251.998342,19.142581,172.283227,9820.143950
252.000902,76.570323,210.568389,9820.143950
252.003462,114.855485,153.140646,9877.571693
252.006022,76.570323,114.855485,9858.429112
252.008582,76.570323,210.568389,9858.429112
252.011141,76.570323,114.855485,9858.429112
252.013701,76.570323,153.140646,9858.429112
252.016261,57.427742,95.712904,9858.429112
252.018823,-19.142581,248.853550,9896.714274
252.021385,76.570323,210.568389,9820.143950
252.023947,76.570323,172.283227,9877.571693
252.026508,76.570323,172.283227,9877.571693
252.029070,114.855485,153.140646,9839.286531
252.031632,57.427742,133.998066,9934.999435
252.034194,38.285162,133.998066,9839.286531
252.036756,19.142581,153.140646,9839.286531
252.039317,76.570323,172.283227,9877.571693
252.041879,95.712904,172.283227,9858.429112
252.044441,95.712904,114.855485,9896.714274
252.047003,114.855485,191.425808,9820.143950
252.049565,19.142581,133.998066,9858.429112
252.052126,19.142581,229.710970,9877.571693
252.054688,-0.000000,133.998066,9801.001370
252.057250,19.142581,133.998066,9896.714274
252.059812,57.427742,133.998066,9877.571693
252.062374,133.998066,229.710970,9877.571693
252.064935,95.712904,172.283227,9877.571693
252.067497,133.998066,114.855485,9820.143950
252.070059,57.427742,114.855485,9801.001370
252.072621,76.570323,114.855485,9820.143950
252.075183,76.570323,114.855485,9820.143950
252.077744,38.285162,114.855485,9896.714274
252.080306,114.855485,114.855485,9896.714274
252.082868,19.142581,191.425808,9801.001370
252.085430,95.712904,172.283227,9801.001370
252.087992,95.712904,153.140646,9877.571693
252.090554,76.570323,114.855485,9877.571693
252.093115,-57.427742,133.998066,9839.286531
252.095677,19.142581,191.425808,9781.858789
252.098239,76.570323,229.710970,9762.716208
252.100801,95.712904,133.998066,9915.856854
252.103363,76.570323,172.283227,9877.571693
252.105924,133.998066,229.710970,9820.143950
252.108486,57.427742,114.855485,9839.286531
252.111048,114.855485,114.855485,9820.143950
252.113610,114.855485,172.283227,9877.571693
252.116172,19.142581,153.140646,9896.714274
252.118733,76.570323,210.568389,9839.286531
252.121296,57.427742,153.140646,9915.856854
252.123858,76.570323,172.283227,9820.143950
252.126421,95.712904,172.283227,9762.716208
252.128983,114.855485,114.855485,9858.429112
252.131546,19.142581,248.853550,9896.714274
252.134108,76.570323,191.425808,9820.143950
252.136671,76.570323,153.140646,9801.001370
252.139233,76.570323,210.568389,9820.143950
252.141796,57.427742,191.425808,9934.999435
252.144358,57.427742,95.712904,9801.001370
252.146921,76.570323,172.283227,9820.143950
252.149483,95.712904,95.712904,9896.714274
252.152046,76.570323,172.283227,9877.571693
252.154608,95.712904,172.283227,9877.571693
252.157171,76.570323,172.283227,9877.571693
252.159733,19.142581,133.998066,9820.143950
252.162296,76.570323,210.568389,9820.143950
252.164859,19.142581,248.853550,9801.001370
252.167421,76.570323,133.998066,9801.001370
252.169984,19.142581,133.998066,9839.286531
252.172546,114.855485,153.140646,9820.143950
252.175109,133.998066,210.568389,9820.143950
252.177671,76.570323,114.855485,9820.143950
252.180234,76.570323,114.855485,9858.429112
252.182796,19.142581,153.140646,9839.286531
252.185359,19.142581,172.283227,9801.001370
252.187921,76.570323,172.283227,9858.429112
252.190484,114.855485,229.710970,9801.001370
252.193046,19.142581,210.568389,9839.286531
252.195609,76.570323,172.283227,9877.571693
252.198171,-19.142581,210.568389,9915.856854
252.200734,19.142581,153.140646,9839.286531
252.203296,76.570323,210.568389,9858.429112
252.205859,114.855485,210.568389,9820.143950
252.208421,114.855485,191.425808,9801.001370
252.210984,19.142581,153.140646,9801.001370
252.213546,95.712904,172.283227,9839.286531
252.216109,38.285162,210.568389,9781.858789
252.218671,76.570323,229.710970,9839.286531
252.221234,19.142581,191.425808,9781.858789
252.223796,114.855485,172.283227,9877.571693
252.226358,76.570323,172.283227,9839.286531
252.228920,114.855485,153.140646,9820.143950
252.231483,19.142581,133.998066,9820.143950
252.234045,76.570323,210.568389,9801.001370
252.236607,57.427742,153.140646,9877.571693
252.239169,76.570323,229.710970,9801.001370
252.241731,76.570323,172.283227,9877.571693
252.244294,76.570323,191.425808,9896.714274
252.246856,76.570323,114.855485,9839.286531
252.249418,76.570323,210.568389,9858.429112
252.251980,133.998066,114.855485,9877.571693
252.254543,19.142581,133.998066,9839.286531
252.257105,76.570323,114.855485,9801.001370
252.259667,76.570323,114.855485,9839.286531
252.262229,76.570323,153.140646,9839.286531
252.264791,57.427742,114.855485,9839.286531
252.267354,19.142581,172.283227,9877.571693
252.269916,76.570323,172.283227,9839.286531
252.272478,133.998066,114.855485,9858.429112
252.275040,38.285162,114.855485,9915.856854
252.277603,19.142581,133.998066,9839.286531
252.280165,57.427742,114.855485,9896.714274
252.282727,38.285162,210.568389,9915.856854
252.285289,57.427742,191.425808,9762.716208
252.287851,76.570323,229.710970,9858.429112
252.290414,95.712904,172.283227,9820.143950
252.292976,114.855485,172.283227,9801.001370
252.295538,19.142581,133.998066,9781.858789
252.298100,19.142581,76.570323,9877.571693
252.300663,76.570323,172.283227,9858.429112
252.303225,76.570323,172.283227,9839.286531
252.305787,153.140646,172.283227,9781.858789
252.308349,76.570323,210.568389,9801.001370
252.310911,76.570323,172.283227,9820.143950
252.313474,95.712904,153.140646,9877.571693
252.316036,57.427742,133.998066,9762.716208
252.318598,76.570323,172.283227,9877.571693
252.321160,76.570323,153.140646,9839.286531
252.323723,76.570323,172.283227,9820.143950
252.326284,76.570323,172.283227,9820.143950
252.328845,95.712904,191.425808,9858.429112
252.331406,76.570323,172.283227,9820.143950
252.333968,19.142581,153.140646,9858.429112
252.336529,76.570323,210.568389,9877.571693
252.339090,76.570323,191.425808,9820.143950
252.341651,19.142581,191.425808,9896.714274
252.344212,57.427742,153.140646,9934.999435
252.346774,76.570323,191.425808,9839.286531
252.349335,19.142581,210.568389,9839.286531
252.351896,76.570323,114.855485,9877.571693
252.354457,114.855485,153.140646,9820.143950
252.357019,95.712904,114.855485,9839.286531
252.359580,57.427742,210.568389,9934.999435
252.362141,19.142581,95.712904,9934.999435
252.364702,57.427742,114.855485,9801.001370
252.367264,76.570323,172.283227,9801.001370
252.369825,114.855485,153.140646,9877.571693
252.372386,19.142581,191.425808,9801.001370
252.374947,95.712904,172.283227,9877.571693
252.377508,114.855485,172.283227,9858.429112
252.380070,19.142581,153.140646,9781.858789
252.382631,57.427742,114.855485,9839.286531
252.385192,114.855485,172.283227,9820.143950
252.387753,76.570323,114.855485,9762.716208
252.390315,76.570323,210.568389,9839.286531
252.392876,76.570323,210.568389,9877.571693
252.395437,19.142581,153.140646,9801.001370
252.397998,-0.000000,172.283227,9858.429112
252.400560,114.855485,114.855485,9877.571693
252.403121,19.142581,172.283227,9858.429112
252.405682,95.712904,95.712904,9801.001370
252.408243,95.712904,114.855485,9896.714274
252.410805,19.142581,133.998066,9820.143950
252.413366,114.855485,114.855485,9820.143950
252.415927,114.855485,153.140646,9801.001370
252.418488,19.142581,153.140646,9858.429112
252.421049,19.142581,133.998066,9858.429112
252.423611,19.142581,191.425808,9858.429112
252.426172,19.142581,153.140646,9858.429112
252.428729,76.570323,172.283227,9820.143950
252.431289,76.570323,210.568389,9858.429112
252.433848,76.570323,210.568389,9858.429112
252.436408,19.142581,153.140646,9858.429112
252.438967,114.855485,133.998066,9934.999435
252.441527,76.570323,210.568389,9858.429112
252.444086,19.142581,191.425808,9934.999435
252.446646,133.998066,229.710970,9858.429112
252.449205,95.712904,114.855485,9801.001370
252.451765,114.855485,172.283227,9858.429112
252.454325,114.855485,229.710970,9839.286531
252.456884,153.140646,114.855485,9820.143950
252.459444,95.712904,153.140646,9743.573627
252.462003,114.855485,114.855485,9858.429112
252.464563,76.570323,133.998066,9839.286531
252.467122,19.142581,191.425808,9839.286531
252.469682,133.998066,248.853550,9839.286531
252.472241,133.998066,153.140646,9839.286531
252.474801,-0.000000,133.998066,9858.429112
252.477360,76.570323,172.283227,9820.143950
252.479920,76.570323,229.710970,9820.143950
252.482479,38.285162,114.855485,9724.431046
252.485039,38.285162,191.425808,9915.856854
252.487598,114.855485,153.140646,9877.571693
252.490158,76.570323,172.283227,9820.143950
252.492717,114.855485,172.283227,9858.429112
252.495277,76.570323,210.568389,9877.571693
252.497836,114.855485,133.998066,9877.571693
252.500396,95.712904,210.568389,9877.571693
252.502955,19.142581,153.140646,9858.429112
252.505515,76.570323,191.425808,9781.858789
252.508074,76.570323,210.568389,9820.143950
252.510634,133.998066,76.570323,9896.714274
252.513193,76.570323,153.140646,9820.143950
252.515753,114.855485,172.283227,9877.571693
252.518313,76.570323,153.140646,9839.286531
252.520872,76.570323,210.568389,9858.429112
252.523432,19.142581,248.853550,9896.714274
252.525991,57.427742,153.140646,9877.571693
252.528551,57.427742,114.855485,9896.714274
252.531109,76.570323,114.855485,9858.429112
252.533668,76.570323,210.568389,9858.429112
252.536226,76.570323,114.855485,9762.716208
252.538785,95.712904,153.140646,9877.571693
252.541343,57.427742,114.855485,9801.001370
252.543902,-0.000000,172.283227,9762.716208
252.546461,76.570323,248.853550,9915.856854
252.549019,76.570323,191.425808,9877.571693
252.551578,76.570323,172.283227,9858.429112
252.554136,114.855485,172.283227,9839.286531
252.556695,76.570323,172.283227,9858.429112
252.559254,76.570323,210.568389,9820.143950
252.561812,172.283227,210.568389,9915.856854
252.564371,76.570323,172.283227,9820.143950
252.566929,19.142581,191.425808,9801.001370
252.569488,114.855485,248.853550,9877.571693
252.572046,19.142581,133.998066,9896.714274
252.574605,114.855485,191.425808,9934.999435
252.577164,76.570323,210.568389,9858.429112
252.579722,76.570323,172.283227,9801.001370
252.582281,95.712904,95.712904,9781.858789
252.584839,76.570323,210.568389,9877.571693
252.587398,76.570323,210.568389,9820.143950
252.589956,76.570323,153.140646,9839.286531
252.592515,95.712904,191.425808,9915.856854
252.595074,76.570323,210.568389,9858.429112
252.597632,76.570323,172.283227,9858.429112
252.600191,76.570323,172.283227,9820.143950
252.602749,133.998066,191.425808,9839.286531
252.605308,114.855485,153.140646,9877.571693
252.607866,172.283227,114.855485,9915.856854
252.610425,19.142581,191.425808,9801.001370
252.612984,-0.000000,210.568389,9839.286531
252.615542,57.427742,95.712904,9781.858789
252.618101,57.427742,153.140646,9934.999435
252.620659,76.570323,114.855485,9877.571693
252.623218,19.142581,153.140646,9801.001370
252.625776,76.570323,210.568389,9820.143950
252.628335,76.570323,172.283227,9858.429112
252.630894,57.427742,229.710970,9839.286531
252.633451,76.570323,172.283227,9877.571693
252.636007,76.570323,210.568389,9858.429112
252.638564,19.142581,172.283227,9801.001370
252.641121,57.427742,95.712904,9820.143950
252.643678,76.570323,114.855485,9877.571693
252.646235,114.855485,114.855485,9820.143950
252.648792,57.427742,191.425808,9934.999435
252.651349,76.570323,210.568389,9877.571693
252.653906,76.570323,210.568389,9877.571693
252.656463,19.142581,153.140646,9801.001370
252.659020,76.570323,172.283227,9858.429112
252.661577,114.855485,114.855485,9896.714274
252.664134,95.712904,172.283227,9934.999435
252.666691,19.142581,133.998066,9896.714274
252.669247,38.285162,172.283227,9915.856854
252.671804,76.570323,172.283227,9858.429112
252.674361,38.285162,114.855485,9896.714274
252.676918,95.712904,172.283227,9858.429112
252.679475,76.570323,191.425808,9858.429112
252.682032,57.427742,95.712904,9858.429112
252.684589,133.998066,172.283227,9820.143950
252.687146,114.855485,114.855485,9877.571693
252.689703,76.570323,153.140646,9839.286531
252.692260,76.570323,210.568389,9839.286531
252.694817,57.427742,172.283227,9801.001370
252.697374,76.570323,191.425808,9877.571693
252.699930,133.998066,191.425808,9896.714274
252.702487,38.285162,76.570323,9858.429112
252.705044,38.285162,76.570323,9877.571693
252.707601,19.142581,153.140646,9801.001370
252.710158,38.285162,191.425808,9762.716208
252.712715,76.570323,133.998066,9915.856854
252.715272,76.570323,172.283227,9820.143950
252.717829,95.712904,114.855485,9858.429112
252.720386,114.855485,172.283227,9820.143950
252.722943,57.427742,191.425808,9877.571693
252.725500,76.570323,172.283227,9801.001370
252.728057,76.570323,172.283227,9858.429112
252.730614,76.570323,172.283227,9877.571693
252.733170,95.712904,153.140646,9934.999435
252.735725,19.142581,153.140646,9915.856854
252.738279,76.570323,114.855485,9858.429112
252.740834,76.570323,210.568389,9858.429112
252.743388,76.570323,172.283227,9858.429112
252.745943,19.142581,153.140646,9801.001370
252.748497,76.570323,153.140646,9877.571693
252.751052,95.712904,172.283227,9877.571693
252.753606,19.142581,153.140646,9801.001370
252.756161,19.142581,248.853550,9896.714274
252.758715,76.570323,172.283227,9877.571693
252.761270,76.570323,210.568389,9858.429112
252.763824,76.570323,172.283227,9820.143950
252.766379,19.142581,191.425808,9820.143950
252.768933,-0.000000,153.140646,9858.429112
252.771488,95.712904,133.998066,9934.999435
252.774042,76.570323,191.425808,9762.716208
252.776597,114.855485,114.855485,9762.716208
252.779151,19.142581,133.998066,9896.714274
252.781706,19.142581,133.998066,9839.286531
252.784260,76.570323,172.283227,9839.286531
252.786815,133.998066,172.283227,9858.429112
252.789369,95.712904,229.710970,9762.716208
252.791924,95.712904,153.140646,9820.143950
252.794478,76.570323,114.855485,9839.286531
252.797033,76.570323,210.568389,9858.429112
252.799587,76.570323,114.855485,9762.716208
252.802141,114.855485,172.283227,9820.143950
252.804696,76.570323,191.425808,9801.001370
252.807250,19.142581,133.998066,9781.858789
252.809805,57.427742,95.712904,9896.714274
252.812359,19.142581,153.140646,9839.286531
252.814914,38.285162,76.570323,9877.571693
252.817468,57.427742,114.855485,9839.286531
252.820023,19.142581,153.140646,9858.429112
252.822577,76.570323,172.283227,9820.143950
252.825132,76.570323,114.855485,9877.571693
252.827686,57.427742,114.855485,9801.001370
252.830241,114.855485,210.568389,9801.001370
252.832795,114.855485,133.998066,9839.286531
252.835350,76.570323,172.283227,9858.429112
252.837902,76.570323,153.140646,9839.286531
252.840454,19.142581,133.998066,9781.858789
252.843006,95.712904,114.855485,9896.714274
252.845558,133.998066,133.998066,9820.143950
252.848110,19.142581,191.425808,9896.714274
252.850662,76.570323,210.568389,9877.571693
252.853214,76.570323,210.568389,9820.143950
252.855765,76.570323,172.283227,9877.571693
252.858317,57.427742,95.712904,9896.714274
252.860869,95.712904,95.712904,9896.714274
252.863421,19.142581,191.425808,9896.714274
252.865973,76.570323,114.855485,9877.571693
252.868525,19.142581,153.140646,9820.143950
252.871077,57.427742,133.998066,9877.571693
252.873629,76.570323,172.283227,9858.429112
252.876181,76.570323,210.568389,9877.571693
252.878733,114.855485,133.998066,9877.571693
252.881285,114.855485,172.283227,9820.143950
252.883837,38.285162,229.710970,9781.858789
252.886389,19.142581,172.283227,9896.714274
252.888941,191.425808,191.425808,9839.286531
252.891493,19.142581,210.568389,9877.571693
252.894045,114.855485,172.283227,9839.286531
252.896597,-19.142581,191.425808,9858.429112
252.899149,19.142581,172.283227,9801.001370
252.901701,19.142581,114.855485,9820.143950
252.904253,95.712904,114.855485,9858.429112
252.906805,19.142581,172.283227,9858.429112
252.909357,19.142581,191.425808,9839.286531
252.911909,19.142581,248.853550,9896.714274
252.914461,76.570323,172.283227,9858.429112
252.917013,76.570323,114.855485,9820.143950
252.919565,57.427742,287.138712,9858.429112
252.922117,76.570323,210.568389,9858.429112
252.924669,76.570323,153.140646,9820.143950
252.927221,114.855485,114.855485,9839.286531
252.929773,57.427742,114.855485,9896.714274
252.932325,76.570323,114.855485,9877.571693
252.934877,-19.142581,172.283227,9858.429112
252.937429,-0.000000,172.283227,9781.858789
252.939978,114.855485,172.283227,9801.001370
252.942528,191.425808,153.140646,9781.858789
252.945078,153.140646,76.570323,9839.286531
252.947627,133.998066,210.568389,9801.001370
252.950177,133.998066,114.855485,9839.286531
252.952727,19.142581,114.855485,9858.429112
252.955276,76.570323,210.568389,9858.429112
252.957826,76.570323,210.568389,9858.429112
252.960376,57.427742,191.425808,9877.571693
252.962925,57.427742,95.712904,9896.714274
252.965475,19.142581,248.853550,9839.286531
252.968025,57.427742,95.712904,9839.286531
252.970574,114.855485,172.283227,9858.429112
252.973124,57.427742,153.140646,9934.999435
252.975674,76.570323,114.855485,9801.001370
252.978223,133.998066,267.996131,9781.858789
252.980773,76.570323,153.140646,9858.429112
252.983323,95.712904,153.140646,9858.429112
252.985872,95.712904,210.568389,9877.571693
252.988422,57.427742,133.998066,9877.571693
252.990972,114.855485,114.855485,9839.286531
252.993521,133.998066,210.568389,9801.001370
252.996071,76.570323,172.283227,9820.143950
252.998621,191.425808,229.710970,9820.143950
253.001170,95.712904,210.568389,9877.571693
253.003720,114.855485,172.283227,9820.143950
253.006270,114.855485,114.855485,9801.001370
253.008819,76.570323,153.140646,9877.571693
253.011369,19.142581,133.998066,9858.429112
253.013919,57.427742,153.140646,9877.571693
253.016469,76.570323,172.283227,9820.143950
253.019018,114.855485,210.568389,9858.429112
253.021568,76.570323,114.855485,9820.143950
253.024118,76.570323,172.283227,9858.429112
253.026667,76.570323,210.568389,9858.429112
253.029217,57.427742,95.712904,9896.714274
253.031767,114.855485,114.855485,9858.429112
253.034316,76.570323,172.283227,9858.429112
253.036866,114.855485,114.855485,9877.571693
253.039416,19.142581,153.140646,9896.714274
253.041923,38.285162,210.568389,9839.286531
253.044431,76.570323,133.998066,9896.714274
253.046938,114.855485,172.283227,9820.143950
253.049446,114.855485,172.283227,9820.143950
253.051953,57.427742,133.998066,9934.999435
253.054461,38.285162,248.853550,9877.571693
253.056968,76.570323,172.283227,9839.286531
253.059476,76.570323,172.283227,9858.429112
253.061983,76.570323,153.140646,9858.429112
253.064491,76.570323,172.283227,9877.571693
253.066998,76.570323,114.855485,9877.571693
253.069506,76.570323,172.283227,9801.001370
253.072013,76.570323,153.140646,9801.001370
253.074521,114.855485,114.855485,9896.714274
253.077029,114.855485,191.425808,9839.286531
253.079536,57.427742,114.855485,9858.429112
253.082044,19.142581,153.140646,9858.429112
253.084551,19.142581,210.568389,9801.001370
253.087059,95.712904,172.283227,9820.143950
253.089566,95.712904,114.855485,9839.286531
253.092074,114.855485,153.140646,9858.429112
253.094581,76.570323,172.283227,9839.286531
253.097089,76.570323,172.283227,9839.286531
253.099596,76.570323,210.568389,9801.001370
253.102104,76.570323,191.425808,9839.286531
253.104611,114.855485,172.283227,9877.571693
253.107119,57.427742,153.140646,9877.571693
253.109626,19.142581,191.425808,9896.714274
253.112134,76.570323,210.568389,9839.286531
253.114642,57.427742,153.140646,9820.143950
253.117149,38.285162,114.855485,9915.856854
253.119657,38.285162,172.283227,9915.856854
253.122164,114.855485,210.568389,9877.571693
253.124672,76.570323,153.140646,9820.143950
253.127179,114.855485,114.855485,9820.143950
253.129687,76.570323,210.568389,9934.999435
253.132194,76.570323,153.140646,9801.001370
253.134702,95.712904,172.283227,9762.716208
253.137209,114.855485,114.855485,9877.571693
253.139717,57.427742,153.140646,9934.999435
253.142232,38.285162,153.140646,9820.143950
253.144747,95.712904,114.855485,9801.001370
253.147262,133.998066,153.140646,9877.571693
253.149777,19.142581,248.853550,9820.143950
253.152292,57.427742,172.283227,9743.573627
253.154807,95.712904,210.568389,9858.429112
253.157322,76.570323,172.283227,9858.429112
253.159837,57.427742,172.283227,9896.714274
253.162352,95.712904,210.568389,9762.716208
253.164867,76.570323,229.710970,9858.429112
253.167382,19.142581,133.998066,9820.143950
253.169897,114.855485,172.283227,9877.571693
253.172412,57.427742,95.712904,9820.143950
253.174927,76.570323,172.283227,9820.143950
253.177442,38.285162,76.570323,9858.429112
253.179957,133.998066,172.283227,9820.143950
253.182472,133.998066,172.283227,9858.429112
253.184987,114.855485,114.855485,9858.429112
253.187502,95.712904,172.283227,9839.286531
253.190017,19.142581,133.998066,9781.858789
253.192532,19.142581,133.998066,9839.286531
253.195047,133.998066,172.283227,9858.429112
253.197562,95.712904,153.140646,9820.143950
253.200077,76.570323,210.568389,9858.429112
253.202592,114.855485,172.283227,9858.429112
253.205107,76.570323,210.568389,9820.143950
253.207622,57.427742,172.283227,9858.429112
253.210137,76.570323,191.425808,9858.429112
253.212652,19.142581,191.425808,9839.286531
253.215167,19.142581,133.998066,9820.143950
253.217682,-0.000000,133.998066,9858.429112
253.220197,114.855485,172.283227,9858.429112
253.222712,95.712904,172.283227,9877.571693
253.225228,19.142581,191.425808,9839.286531
253.227743,76.570323,172.283227,9762.716208
253.230258,19.142581,210.568389,9820.143950
253.232773,19.142581,153.140646,9839.286531
253.235288,114.855485,172.283227,9877.571693
253.237803,38.285162,153.140646,9896.714274
253.240318,19.142581,133.998066,9839.286531
253.242839,95.712904,114.855485,9896.714274
253.245360,76.570323,114.855485,9820.143950
253.247881,38.285162,76.570323,9858.429112
253.250402,76.570323,210.568389,9839.286531
253.252923,76.570323,191.425808,9896.714274
253.255444,76.570323,210.568389,9877.571693
253.257965,76.570323,172.283227,9820.143950
253.260486,19.142581,153.140646,9877.571693
253.263007,19.142581,153.140646,9839.286531
253.265528,114.855485,114.855485,9820.143950
253.268049,76.570323,172.283227,9820.143950
253.270570,114.855485,172.283227,9858.429112
253.273091,114.855485,114.855485,9839.286531
253.275612,114.855485,76.570323,9839.286531
253.278133,133.998066,210.568389,9877.571693
253.280654,19.142581,153.140646,9801.001370
253.283175,19.142581,172.283227,9877.571693
253.285696,76.570323,210.568389,9858.429112
253.288217,95.712904,153.140646,9934.999435
253.290738,76.570323,210.568389,9839.286531
253.293260,76.570323,153.140646,9801.001370
253.295781,76.570323,210.568389,9839.286531
253.298302,114.855485,210.568389,9877.571693
253.300823,76.570323,210.568389,9820.143950
253.303344,114.855485,172.283227,9820.143950
253.305865,95.712904,153.140646,9877.571693
253.308386,95.712904,172.283227,9762.716208
253.310907,19.142581,172.283227,9801.001370
253.313428,19.142581,133.998066,9781.858789
253.315949,76.570323,229.710970,9877.571693
253.318470,19.142581,191.425808,9839.286531
253.320991,76.570323,153.140646,9858.429112
253.323512,114.855485,114.855485,9858.429112
253.326033,76.570323,153.140646,9801.001370
253.328554,57.427742,114.855485,9801.001370
253.331075,95.712904,114.855485,9762.716208
253.333596,114.855485,172.283227,9858.429112
253.336117,19.142581,114.855485,9934.999435
253.338638,38.285162,248.853550,9801.001370
253.341159,38.285162,172.283227,9915.856854
253.343685,76.570323,172.283227,9820.143950
253.346210,76.570323,172.283227,9877.571693
253.348735,76.570323,114.855485,9839.286531
253.351260,76.570323,172.283227,9858.429112
253.353785,19.142581,133.998066,9781.858789
253.356310,38.285162,267.996131,9820.143950
253.358836,76.570323,210.568389,9839.286531
253.361361,114.855485,114.855485,9839.286531
253.363886,76.570323,114.855485,9858.429112
253.366411,114.855485,153.140646,9820.143950
253.368936,76.570323,210.568389,9877.571693
253.371462,19.142581,210.568389,9896.714274
253.373987,76.570323,114.855485,9877.571693
253.376512,38.285162,133.998066,9762.716208
253.379037,133.998066,172.283227,9820.143950
253.381562,76.570323,172.283227,9801.001370
253.384088,19.142581,191.425808,9781.858789
253.386613,95.712904,191.425808,9858.429112
253.389138,76.570323,114.855485,9839.286531
253.391663,57.427742,95.712904,9839.286531
253.394188,114.855485,172.283227,9820.143950
253.396713,76.570323,172.283227,9839.286531
253.399239,76.570323,114.855485,9820.143950
253.401764,19.142581,172.283227,9839.286531
253.404289,19.142581,248.853550,9896.714274
253.406814,76.570323,191.425808,9858.429112
253.409339,76.570323,172.283227,9801.001370
253.411865,38.285162,114.855485,9915.856854
253.414390,19.142581,133.998066,9801.001370
253.416915,19.142581,191.425808,9839.286531
253.419440,38.285162,172.283227,9877.571693
253.421965,76.570323,210.568389,9877.571693
253.424490,76.570323,172.283227,9858.429112
253.427017,38.285162,248.853550,9839.286531
253.429544,57.427742,133.998066,9743.573627
253.432071,57.427742,153.140646,9877.571693
253.434599,76.570323,210.568389,9858.429112
253.437126,76.570323,172.283227,9877.571693
253.439653,76.570323,210.568389,9839.286531
253.442180,19.142581,153.140646,9896.714274
253.444707,95.712904,210.568389,9820.143950
253.447235,133.998066,153.140646,9877.571693
253.449762,114.855485,114.855485,9762.716208
253.452289,57.427742,172.283227,9858.429112
253.454816,76.570323,153.140646,9801.001370
253.457343,76.570323,114.855485,9820.143950
253.459871,38.285162,267.996131,9858.429112
253.462398,114.855485,114.855485,9820.143950
253.464925,19.142581,133.998066,9781.858789
253.467452,19.142581,248.853550,9839.286531
253.469979,57.427742,153.140646,9877.571693
253.472507,76.570323,114.855485,9839.286531
253.475034,19.142581,172.283227,9801.001370
253.477561,-0.000000,153.140646,9801.001370
253.480088,19.142581,153.140646,9801.001370
253.482615,114.855485,210.568389,9877.571693
253.485143,76.570323,114.855485,9839.286531
253.487670,76.570323,172.283227,9820.143950
253.490197,19.142581,153.140646,9801.001370
253.492724,76.570323,114.855485,9877.571693
253.495251,76.570323,229.710970,9820.143950
253.497779,76.570323,229.710970,9877.571693
253.500306,57.427742,114.855485,9839.286531
253.502833,76.570323,172.283227,9877.571693
253.505360,19.142581,153.140646,9801.001370
253.507887,76.570323,210.568389,9858.429112
253.510415,95.712904,191.425808,9820.143950
253.512942,57.427742,191.425808,9877.571693
253.515469,76.570323,172.283227,9839.286531
253.517996,19.142581,191.425808,9896.714274
253.520523,57.427742,114.855485,9801.001370
253.523051,76.570323,172.283227,9858.429112
253.525543,19.142581,191.425808,9801.001370
253.528036,38.285162,229.710970,9896.714274
253.530529,76.570323,114.855485,9858.429112
253.533021,19.142581,153.140646,9820.143950
253.535514,38.285162,248.853550,9762.716208
253.538007,76.570323,210.568389,9839.286531
253.540499,114.855485,210.568389,9877.571693
253.542992,76.570323,172.283227,9820.143950
253.545485,19.142581,248.853550,9801.001370
253.547977,19.142581,248.853550,9781.858789
253.550470,114.855485,229.710970,9877.571693
253.552962,57.427742,153.140646,9877.571693
253.555455,95.712904,191.425808,9934.999435
253.557948,57.427742,229.710970,9839.286531
253.560440,19.142581,133.998066,9801.001370
253.562933,76.570323,172.283227,9877.571693
253.565426,76.570323,191.425808,9839.286531
253.567918,19.142581,210.568389,9839.286531
253.570411,76.570323,153.140646,9858.429112
253.572904,76.570323,210.568389,9896.714274
253.575396,19.142581,191.425808,9896.714274
253.577889,133.998066,210.568389,9877.571693
253.580382,95.712904,114.855485,9858.429112
253.582874,57.427742,95.712904,9858.429112
253.585367,114.855485,210.568389,9781.858789
253.587860,95.712904,210.568389,9877.571693
253.590352,95.712904,95.712904,9801.001370
253.592845,38.285162,133.998066,9877.571693
253.595338,95.712904,210.568389,9934.999435
253.597830,114.855485,172.283227,9877.571693
253.600323,76.570323,210.568389,9820.143950
253.602816,57.427742,229.710970,9858.429112
253.605308,76.570323,172.283227,9839.286531
253.607801,76.570323,153.140646,9858.429112
253.610293,19.142581,133.998066,9896.714274
253.612786,38.285162,172.283227,9915.856854
253.615279,76.570323,210.568389,9839.286531
253.617771,38.285162,114.855485,9896.714274
253.620264,114.855485,191.425808,9877.571693
253.622757,57.427742,114.855485,9801.001370
253.625259,76.570323,114.855485,9858.429112
253.627762,76.570323,114.855485,9839.286531
253.630264,76.570323,172.283227,9820.143950
253.632767,19.142581,191.425808,9896.714274
253.635270,133.998066,172.283227,9839.286531
253.637772,76.570323,153.140646,9820.143950
253.640275,95.712904,172.283227,9858.429112
253.642777,95.712904,172.283227,9839.286531
253.645280,76.570323,210.568389,9858.429112
253.647782,38.285162,210.568389,9896.714274
253.650285,76.570323,210.568389,9801.001370
253.652788,19.142581,172.283227,9820.143950
253.655290,76.570323,114.855485,9877.571693
253.657793,57.427742,153.140646,9934.999435
253.660295,-0.000000,210.568389,9820.143950
253.662798,57.427742,133.998066,9934.999435
253.665300,38.285162,210.568389,9896.714274
253.667803,76.570323,229.710970,9877.571693
253.670306,114.855485,114.855485,9762.716208
253.672808,76.570323,210.568389,9820.143950
253.675311,133.998066,191.425808,9839.286531
253.677813,19.142581,172.283227,9839.286531
253.680316,38.285162,133.998066,9762.716208
253.682818,76.570323,172.283227,9877.571693
253.685321,76.570323,210.568389,9839.286531
253.687824,19.142581,248.853550,9820.143950
253.690326,57.427742,229.710970,9896.714274
253.692829,114.855485,172.283227,9877.571693
253.695331,153.140646,153.140646,9877.571693
253.697834,19.142581,153.140646,9896.714274
253.700336,19.142581,153.140646,9781.858789
253.702839,76.570323,133.998066,9896.714274
253.705342,95.712904,210.568389,9858.429112
253.707844,76.570323,191.425808,9858.429112
253.710347,19.142581,153.140646,9820.143950
253.712849,38.285162,76.570323,9877.571693
253.715352,76.570323,172.283227,9858.429112
253.717855,76.570323,210.568389,9858.429112
253.720357,76.570323,172.283227,9858.429112
253.722860,57.427742,172.283227,9934.999435
253.725334,76.570323,153.140646,9877.571693
253.727809,76.570323,153.140646,9820.143950
253.730284,57.427742,210.568389,9839.286531
253.732759,95.712904,153.140646,9820.143950
253.735233,76.570323,172.283227,9801.001370
253.737708,57.427742,248.853550,9934.999435
253.740183,76.570323,153.140646,9820.143950
253.742657,114.855485,210.568389,9858.429112
253.745132,114.855485,248.853550,9762.716208
253.747607,76.570323,172.283227,9762.716208
253.750082,76.570323,172.283227,9858.429112
253.752556,19.142581,133.998066,9781.858789
253.755031,57.427742,114.855485,9839.286531
253.757506,19.142581,248.853550,9858.429112
253.759980,19.142581,153.140646,9896.714274
253.762455,76.570323,210.568389,9820.143950
253.764930,19.142581,191.425808,9858.429112
253.767405,76.570323,114.855485,9858.429112
253.769879,114.855485,172.283227,9858.429112
253.772354,76.570323,210.568389,9762.716208
253.774829,76.570323,191.425808,9762.716208
253.777304,19.142581,133.998066,9858.429112
253.779778,114.855485,153.140646,9762.716208
253.782253,76.570323,153.140646,9877.571693
253.784728,76.570323,114.855485,9801.001370
253.787202,19.142581,172.283227,9896.714274
253.789677,19.142581,191.425808,9820.143950
253.792152,57.427742,95.712904,9858.429112
253.794627,57.427742,133.998066,9934.999435
253.797101,57.427742,172.283227,9934.999435
253.799576,19.142581,191.425808,9896.714274
253.802051,19.142581,153.140646,9896.714274
253.804525,-0.000000,114.855485,9915.856854
253.807000,19.142581,172.283227,9839.286531
253.809475,76.570323,210.568389,9877.571693
253.811950,76.570323,114.855485,9820.143950
253.814424,76.570323,210.568389,9858.429112
253.816899,57.427742,153.140646,9877.571693
253.819374,114.855485,172.283227,9820.143950
253.821849,114.855485,95.712904,9801.001370
253.824302,57.427742,114.855485,9801.001370
253.826756,114.855485,172.283227,9877.571693
253.829210,76.570323,153.140646,9839.286531
253.831664,19.142581,248.853550,9781.858789
253.834117,57.427742,76.570323,9877.571693
253.836571,76.570323,133.998066,9839.286531
253.839025,57.427742,133.998066,9934.999435
253.841479,19.142581,191.425808,9915.856854
253.843932,19.142581,191.425808,9781.858789
253.846386,76.570323,172.283227,9858.429112
253.848840,76.570323,172.283227,9801.001370
253.851294,-19.142581,114.855485,9896.714274
253.853747,76.570323,191.425808,9858.429112
253.856201,19.142581,172.283227,9896.714274
253.858655,76.570323,133.998066,9915.856854
253.861109,57.427742,133.998066,9934.999435
253.863562,95.712904,153.140646,9801.001370
253.866016,114.855485,210.568389,9877.571693
253.868470,133.998066,172.283227,9839.286531
253.870924,76.570323,153.140646,9877.571693
253.873377,76.570323,114.855485,9877.571693
253.875831,57.427742,172.283227,9839.286531
253.878285,76.570323,153.140646,9762.716208
253.880739,19.142581,153.140646,9839.286531
253.883192,19.142581,153.140646,9896.714274
253.885646,-19.142581,210.568389,9801.001370
253.888100,114.855485,114.855485,9820.143950
253.890554,19.142581,133.998066,9839.286531
253.893007,76.570323,153.140646,9877.571693
253.895461,57.427742,95.712904,9839.286531
253.897915,114.855485,191.425808,9762.716208
253.900369,19.142581,133.998066,9820.143950
253.902822,19.142581,153.140646,9839.286531
253.905276,76.570323,172.283227,9858.429112
253.907730,76.570323,153.140646,9877.571693
253.910184,76.570323,172.283227,9801.001370
253.912637,114.855485,114.855485,9858.429112
253.915091,38.285162,114.855485,9896.714274
253.917545,76.570323,210.568389,9839.286531
253.919999,19.142581,191.425808,9781.858789
253.922437,114.855485,172.283227,9801.001370
253.924875,95.712904,153.140646,9858.429112
253.927314,95.712904,95.712904,9839.286531
253.929752,76.570323,172.283227,9858.429112
253.932190,19.142581,248.853550,9801.001370
253.934629,133.998066,172.283227,9820.143950
253.937067,19.142581,133.998066,9896.714274
253.939505,-0.000000,191.425808,9801.001370
253.941944,-0.000000,210.568389,9781.858789
253.944382,76.570323,172.283227,9762.716208
253.946820,19.142581,153.140646,9801.001370
253.949258,57.427742,153.140646,9934.999435
253.951697,95.712904,153.140646,9839.286531
253.954135,19.142581,248.853550,9781.858789
253.956573,95.712904,153.140646,9839.286531
253.959012,76.570323,153.140646,9877.571693
253.961450,95.712904,76.570323,9896.714274
253.963888,114.855485,114.855485,9877.571693
253.966327,76.570323,95.712904,9934.999435
253.968765,76.570323,172.283227,9820.143950
253.971203,114.855485,306.281293,9839.286531
253.973642,57.427742,133.998066,9934.999435
253.976080,133.998066,172.283227,9877.571693
253.978518,38.285162,153.140646,9858.429112
253.980956,76.570323,172.283227,9839.286531
253.983395,19.142581,133.998066,9858.429112
253.985833,57.427742,153.140646,9934.999435
253.988271,19.142581,133.998066,9915.856854
253.990710,76.570323,172.283227,9877.571693
253.993148,76.570323,229.710970,9877.571693
253.995586,76.570323,114.855485,9820.143950
253.998025,57.427742,153.140646,9934.999435
254.000463,57.427742,191.425808,9743.573627
254.002901,57.427742,172.283227,9877.571693
254.005340,114.855485,172.283227,9820.143950
254.007778,57.427742,191.425808,9934.999435
254.010216,153.140646,172.283227,9954.142016
254.012654,76.570323,114.855485,9877.571693
254.015093,95.712904,229.710970,9896.714274
254.017531,76.570323,172.283227,9839.286531
254.019993,76.570323,114.855485,9858.429112
254.022455,57.427742,133.998066,9877.571693
254.024917,76.570323,210.568389,9820.143950
254.027379,76.570323,153.140646,9896.714274
254.029842,95.712904,153.140646,9877.571693
254.032304,76.570323,172.283227,9877.571693
254.034766,76.570323,153.140646,9801.001370
254.037228,19.142581,133.998066,9896.714274
254.039690,76.570323,210.568389,9762.716208
254.042152,114.855485,114.855485,9858.429112
254.044614,76.570323,191.425808,9820.143950
254.047076,76.570323,153.140646,9801.001370
254.049538,114.855485,114.855485,9762.716208
254.052000,76.570323,229.710970,9839.286531
254.054462,76.570323,114.855485,9877.571693
254.056925,76.570323,172.283227,9820.143950
254.059387,76.570323,153.140646,9762.716208
254.061849,19.142581,153.140646,9858.429112
254.064311,19.142581,133.998066,9801.001370
254.066773,76.570323,172.283227,9839.286531
254.069235,19.142581,133.998066,9896.714274
254.071697,76.570323,210.568389,9839.286531
254.074159,76.570323,229.710970,9839.286531
254.076621,76.570323,210.568389,9820.143950
254.079083,114.855485,172.283227,9820.143950
254.081545,114.855485,210.568389,9877.571693
254.084008,76.570323,114.855485,9877.571693
254.086470,-19.142581,172.283227,9896.714274
254.088932,19.142581,153.140646,9801.001370
254.091394,95.712904,114.855485,9839.286531
254.093856,76.570323,210.568389,9858.429112
254.096318,95.712904,153.140646,9877.571693
254.098780,19.142581,133.998066,9801.001370
254.101242,95.712904,210.568389,9762.716208
254.103704,133.998066,191.425808,9896.714274
254.106166,76.570323,210.568389,9839.286531
254.108628,114.855485,172.283227,9762.716208
254.111091,114.855485,191.425808,9820.143950
254.113553,76.570323,153.140646,9896.714274
254.116015,95.712904,191.425808,9934.999435
254.118462,38.285162,76.570323,9820.143950
254.120910,76.570323,172.283227,9858.429112
254.123357,-19.142581,133.998066,9820.143950
254.125805,38.285162,95.712904,9858.429112
254.128252,76.570323,210.568389,9858.429112
254.130699,76.570323,210.568389,9839.286531
254.133147,76.570323,114.855485,9877.571693
254.135594,-0.000000,191.425808,9896.714274
254.138042,38.285162,172.283227,9820.143950
254.140489,76.570323,153.140646,9762.716208
254.142937,114.855485,172.283227,9877.571693
254.145384,114.855485,95.712904,9820.143950
254.147832,95.712904,191.425808,9820.143950
254.150279,19.142581,153.140646,9858.429112
254.152727,114.855485,172.283227,9877.571693
254.155174,57.427742,248.853550,9877.571693
254.157622,133.998066,172.283227,9762.716208
254.160069,114.855485,153.140646,9877.571693
254.162517,95.712904,172.283227,9781.858789
254.164964,19.142581,133.998066,9801.001370
254.167411,76.570323,76.570323,9915.856854
254.169859,76.570323,114.855485,9877.571693
254.172306,76.570323,172.283227,9839.286531
254.174754,38.285162,114.855485,9896.714274
254.177201,-38.285162,191.425808,9801.001370
254.179649,19.142581,248.853550,9781.858789
254.182096,133.998066,133.998066,9839.286531
254.184544,76.570323,210.568389,9820.143950
254.186991,19.142581,153.140646,9896.714274
254.189439,76.570323,172.283227,9839.286531
254.191886,76.570323,133.998066,9896.714274
254.194334,133.998066,191.425808,9877.571693
254.196781,114.855485,210.568389,9839.286531
254.199229,114.855485,153.140646,9762.716208
254.201676,76.570323,172.283227,9858.429112
254.204123,114.855485,172.283227,9858.429112
254.206571,76.570323,114.855485,9877.571693
254.209018,57.427742,95.712904,9801.001370
254.211466,95.712904,95.712904,9801.001370
254.213913,153.140646,153.140646,9934.999435
254.216385,95.712904,133.998066,9877.571693
254.218856,95.712904,172.283227,9801.001370
254.221327,76.570323,172.283227,9877.571693
254.223798,76.570323,210.568389,9762.716208
254.226269,57.427742,210.568389,9896.714274
254.228740,76.570323,210.568389,9877.571693
254.231212,76.570323,114.855485,9820.143950
254.233683,114.855485,210.568389,9762.716208
254.236154,95.712904,210.568389,9858.429112
254.238625,76.570323,210.568389,9820.143950
254.241096,133.998066,172.283227,9858.429112
254.243568,114.855485,114.855485,9839.286531
254.246039,76.570323,172.283227,9801.001370
254.248510,-0.000000,191.425808,9801.001370
254.250981,76.570323,114.855485,9877.571693
254.253452,57.427742,172.283227,9839.286531
254.255924,76.570323,172.283227,9820.143950
254.258395,76.570323,114.855485,9839.286531
254.260866,19.142581,114.855485,9934.999435
254.263337,76.570323,153.140646,9877.571693
254.265808,114.855485,210.568389,9762.716208
254.268280,76.570323,172.283227,9820.143950
254.270751,38.285162,210.568389,9915.856854
254.273222,114.855485,114.855485,9820.143950
254.275693,19.142581,153.140646,9858.429112
254.278164,57.427742,95.712904,9858.429112
254.280635,38.285162,133.998066,9877.571693
254.283107,19.142581,172.283227,9896.714274
254.285578,19.142581,191.425808,9858.429112
254.288049,57.427742,172.283227,9877.571693
254.290520,76.570323,229.710970,9762.716208
254.292991,76.570323,114.855485,9762.716208
254.295463,76.570323,172.283227,9820.143950
254.297934,76.570323,114.855485,9820.143950
254.300405,76.570323,153.140646,9820.143950
254.302876,19.142581,172.283227,9839.286531
254.305347,19.142581,133.998066,9781.858789
254.307819,19.142581,191.425808,9839.286531
254.310290,76.570323,172.283227,9877.571693
254.312761,133.998066,210.568389,9839.286531
254.315247,76.570323,114.855485,9820.143950
254.317738,76.570323,210.568389,9820.143950
254.320229,76.570323,172.283227,9877.571693
254.322720,76.570323,114.855485,9858.429112
254.325211,95.712904,153.140646,9839.286531
254.327702,76.570323,229.710970,9839.286531
254.330194,19.142581,153.140646,9839.286531
254.332685,95.712904,172.283227,9877.571693
254.335176,57.427742,114.855485,9896.714274
254.337667,95.712904,114.855485,9858.429112
254.340158,76.570323,191.425808,9820.143950
254.342649,57.427742,191.425808,9743.573627
254.345140,38.285162,114.855485,9896.714274
254.347631,19.142581,153.140646,9801.001370
254.350123,76.570323,172.283227,9820.143950
254.352614,76.570323,172.283227,9877.571693
254.355105,57.427742,153.140646,9934.999435
254.357596,76.570323,153.140646,9858.429112
254.360087,19.142581,191.425808,9801.001370
254.362578,57.427742,191.425808,9934.999435
254.365069,38.285162,172.283227,9896.714274
254.367560,114.855485,114.855485,9762.716208
254.370051,114.855485,172.283227,9801.001370
254.372543,19.142581,191.425808,9858.429112
254.375034,19.142581,133.998066,9839.286531
254.377525,76.570323,210.568389,9801.001370
254.380016,95.712904,57.427742,9858.429112
254.382507,114.855485,114.855485,9839.286531
254.384998,76.570323,191.425808,9877.571693
254.387489,19.142581,153.140646,9858.429112
254.389980,114.855485,114.855485,9858.429112
254.392472,76.570323,172.283227,9877.571693
254.394963,76.570323,172.283227,9820.143950
254.397454,133.998066,153.140646,9801.001370
254.399945,95.712904,114.855485,9858.429112
254.402436,76.570323,191.425808,9877.571693
254.404927,57.427742,76.570323,9839.286531
254.407418,19.142581,153.140646,9858.429112
254.409909,76.570323,210.568389,9839.286531
254.412401,76.570323,210.568389,9877.571693
254.414908,57.427742,114.855485,9839.286531
254.417415,76.570323,114.855485,9877.571693
254.419922,95.712904,210.568389,9839.286531
254.422430,19.142581,153.140646,9839.286531
254.424937,57.427742,95.712904,9896.714274
254.427444,76.570323,210.568389,9858.429112
254.429952,76.570323,172.283227,9801.001370
254.432459,-0.000000,210.568389,9839.286531
254.434966,57.427742,95.712904,9896.714274
254.437474,19.142581,153.140646,9858.429112
254.439981,114.855485,172.283227,9839.286531
254.442488,153.140646,133.998066,9934.999435
254.444995,19.142581,133.998066,9839.286531
254.447503,76.570323,191.425808,9839.286531
254.450010,76.570323,210.568389,9820.143950
254.452517,19.142581,191.425808,9801.001370
254.455025,153.140646,95.712904,9839.286531
254.457532,76.570323,114.855485,9820.143950
254.460039,38.285162,76.570323,9839.286531
254.462547,57.427742,133.998066,9934.999435
254.465054,19.142581,153.140646,9839.286531
254.467561,76.570323,172.283227,9820.143950
254.470068,19.142581,191.425808,9858.429112
254.472576,114.855485,153.140646,9820.143950
254.475083,95.712904,114.855485,9877.571693
254.477590,57.427742,95.712904,9839.286531
254.480098,-19.142581,76.570323,9858.429112
254.482605,19.142581,133.998066,9839.286531
254.485112,57.427742,191.425808,9877.571693
254.487620,76.570323,114.855485,9877.571693
254.490127,95.712904,114.855485,9839.286531
254.492634,114.855485,210.568389,9801.001370
254.495141,153.140646,114.855485,9858.429112
254.497649,19.142581,153.140646,9896.714274
254.500156,76.570323,153.140646,9858.429112
254.502663,76.570323,172.283227,9839.286531
254.505171,114.855485,172.283227,9820.143950
254.507678,76.570323,248.853550,9915.856854
254.510185,76.570323,210.568389,9877.571693
254.512692,76.570323,114.855485,9877.571693
254.515213,153.140646,248.853550,9762.716208
254.517734,76.570323,114.855485,9801.001370
254.520254,114.855485,95.712904,9896.714274
254.522775,76.570323,172.283227,9762.716208
254.525295,19.142581,248.853550,9781.858789
254.527816,114.855485,172.283227,9801.001370
254.530336,76.570323,114.855485,9858.429112
254.532857,114.855485,191.425808,9820.143950
254.535377,19.142581,172.283227,9896.714274
254.537898,133.998066,210.568389,9839.286531
254.540418,76.570323,114.855485,9820.143950
254.542939,-19.142581,133.998066,9820.143950
254.545459,57.427742,114.855485,9801.001370
254.547980,76.570323,172.283227,9877.571693
254.550500,76.570323,191.425808,9820.143950
254.553021,76.570323,210.568389,9820.143950
254.555541,76.570323,191.425808,9820.143950
254.558062,172.283227,76.570323,9820.143950
254.560582,76.570323,114.855485,9839.286531
254.563103,57.427742,95.712904,9896.714274
254.565623,19.142581,172.283227,9839.286531
254.568144,57.427742,114.855485,9858.429112
254.570664,76.570323,172.283227,9877.571693
254.573185,76.570323,172.283227,9877.571693
254.575705,76.570323,210.568389,9877.571693
254.578226,57.427742,172.283227,9934.999435
254.580747,-19.142581,133.998066,9858.429112
254.583267,76.570323,114.855485,9858.429112
254.585788,76.570323,210.568389,9820.143950
254.588308,38.285162,133.998066,9858.429112
254.590829,76.570323,191.425808,9877.571693
254.593349,76.570323,114.855485,9877.571693
254.595870,76.570323,210.568389,9858.429112
254.598390,76.570323,210.568389,9858.429112
254.600911,95.712904,229.710970,9858.429112
254.603431,95.712904,114.855485,9820.143950
254.605952,114.855485,114.855485,9858.429112
254.608472,76.570323,210.568389,9839.286531
254.610993,38.285162,133.998066,9839.286531
254.613513,76.570323,153.140646,9801.001370
254.616044,153.140646,133.998066,9934.999435
254.618575,76.570323,114.855485,9839.286531
254.621106,76.570323,172.283227,9858.429112
254.623637,57.427742,95.712904,9896.714274
254.626168,76.570323,172.283227,9858.429112
254.628699,76.570323,210.568389,9877.571693
254.631230,19.142581,153.140646,9839.286531
254.633761,19.142581,191.425808,9839.286531
254.636292,76.570323,172.283227,9877.571693
254.638823,19.142581,133.998066,9896.714274
254.641354,133.998066,210.568389,9858.429112
254.643885,76.570323,172.283227,9801.001370
254.646416,19.142581,153.140646,9801.001370
254.648948,76.570323,114.855485,9820.143950
254.651479,38.285162,153.140646,9973.284597
254.654010,76.570323,210.568389,9762.716208
254.656541,57.427742,133.998066,9877.571693
254.659072,95.712904,95.712904,9896.714274
254.661603,57.427742,95.712904,9896.714274
254.664134,19.142581,153.140646,9839.286531
254.666665,57.427742,191.425808,9877.571693
254.669196,19.142581,133.998066,9896.714274
254.671727,114.855485,172.283227,9762.716208
254.674258,76.570323,191.425808,9877.571693
254.676789,76.570323,114.855485,9858.429112
254.679320,76.570323,172.283227,9839.286531
254.681851,76.570323,210.568389,9839.286531
254.684382,76.570323,153.140646,9858.429112
254.686913,19.142581,172.283227,9858.429112
254.689444,38.285162,133.998066,9858.429112
254.691975,114.855485,114.855485,9801.001370
254.694506,95.712904,95.712904,9839.286531
254.697037,76.570323,114.855485,9858.429112
254.699568,19.142581,172.283227,9858.429112
254.702099,76.570323,229.710970,9839.286531
254.704630,114.855485,191.425808,9934.999435
254.707161,19.142581,153.140646,9896.714274
254.709692,57.427742,210.568389,9839.286531
254.712223,57.427742,133.998066,9858.429112
254.714754,133.998066,172.283227,9820.143950
254.717293,38.285162,114.855485,9839.286531
254.719833,114.855485,248.853550,9896.714274
254.722372,38.285162,133.998066,9762.716208
254.724911,76.570323,210.568389,9820.143950
254.727450,76.570323,210.568389,9858.429112
254.729990,133.998066,210.568389,9858.429112
254.732529,76.570323,153.140646,9839.286531
254.735068,76.570323,153.140646,9781.858789
254.737608,19.142581,191.425808,9801.001370
254.740147,57.427742,95.712904,9801.001370
254.742686,114.855485,76.570323,9915.856854
254.745225,114.855485,114.855485,9820.143950
254.747765,76.570323,114.855485,9877.571693
254.750304,76.570323,210.568389,9877.571693
254.752843,76.570323,210.568389,9839.286531
254.755383,114.855485,172.283227,9858.429112
254.757922,95.712904,114.855485,9801.001370
254.760461,133.998066,114.855485,9801.001370
254.763000,114.855485,210.568389,9877.571693
254.765540,38.285162,172.283227,9915.856854
254.768079,114.855485,210.568389,9934.999435
254.770618,114.855485,229.710970,9858.429112
254.773158,76.570323,229.710970,9858.429112
254.775697,76.570323,114.855485,9858.429112
254.778236,95.712904,114.855485,9858.429112
254.780776,76.570323,76.570323,9896.714274
254.783315,38.285162,210.568389,9877.571693
254.785854,76.570323,191.425808,9839.286531
254.788393,57.427742,114.855485,9896.714274
254.790933,76.570323,191.425808,9877.571693
254.793472,19.142581,172.283227,9801.001370
254.796011,76.570323,114.855485,9877.571693
254.798551,76.570323,191.425808,9839.286531
254.801090,57.427742,57.427742,9820.143950
254.803629,57.427742,114.855485,9839.286531
254.806168,76.570323,210.568389,9877.571693
254.808708,-0.000000,191.425808,9801.001370
254.811247,19.142581,153.140646,9896.714274
254.813786,76.570323,172.283227,9877.571693
254.816326,19.142581,114.855485,9934.999435
254.818871,95.712904,172.283227,9839.286531
254.821417,95.712904,114.855485,9820.143950
254.823963,114.855485,133.998066,9839.286531
254.826509,76.570323,153.140646,9858.429112
254.829055,57.427742,133.998066,9934.999435
254.831601,76.570323,172.283227,9820.143950
254.834146,38.285162,210.568389,9896.714274
254.836692,76.570323,153.140646,9858.429112
254.839238,19.142581,153.140646,9858.429112
254.841784,38.285162,153.140646,9896.714274
254.844330,57.427742,153.140646,9934.999435
254.846876,114.855485,191.425808,9877.571693
254.849422,19.142581,153.140646,9781.858789
254.851967,114.855485,153.140646,9877.571693
254.854513,57.427742,133.998066,9839.286531
254.857059,57.427742,172.283227,9877.571693
254.859605,114.855485,229.710970,9801.001370
254.862151,76.570323,210.568389,9762.716208
254.864697,19.142581,191.425808,9896.714274
254.867242,95.712904,172.283227,9877.571693
254.869788,38.285162,76.570323,9839.286531
254.872334,76.570323,210.568389,9877.571693
254.874880,95.712904,210.568389,9820.143950
254.877426,57.427742,95.712904,9820.143950
254.879972,76.570323,210.568389,9858.429112
254.882517,114.855485,153.140646,9801.001370
254.885063,76.570323,172.283227,9820.143950
254.887609,76.570323,172.283227,9877.571693
254.890155,95.712904,172.283227,9877.571693
254.892701,76.570323,114.855485,9877.571693
254.895247,76.570323,153.140646,9858.429112
254.897793,76.570323,229.710970,9820.143950
254.900338,38.285162,133.998066,9858.429112
254.902884,57.427742,114.855485,9839.286531
254.905430,114.855485,210.568389,9877.571693
254.907976,76.570323,172.283227,9877.571693
254.910522,76.570323,172.283227,9762.716208
254.913068,76.570323,153.140646,9877.571693
254.915613,76.570323,191.425808,9858.429112
254.918159,19.142581,153.140646,9858.429112
254.920677,57.427742,229.710970,9839.286531
254.923195,57.427742,153.140646,9762.716208
254.925713,76.570323,114.855485,9858.429112
254.928231,57.427742,172.283227,9801.001370
254.930749,57.427742,114.855485,9839.286531
254.933267,57.427742,153.140646,9934.999435
254.935785,38.285162,133.998066,9877.571693
254.938303,38.285162,210.568389,9896.714274
254.940821,76.570323,172.283227,9820.143950
254.943339,19.142581,210.568389,9781.858789
254.945856,133.998066,210.568389,9801.001370
254.948374,57.427742,114.855485,9781.858789
254.950892,38.285162,133.998066,9877.571693
254.953410,76.570323,153.140646,9877.571693
254.955928,19.142581,133.998066,9801.001370
254.958446,76.570323,153.140646,9858.429112
254.960964,19.142581,95.712904,9934.999435
254.963482,76.570323,210.568389,9839.286531
254.966000,19.142581,172.283227,9839.286531
254.968518,38.285162,114.855485,9896.714274
254.971036,76.570323,229.710970,9858.429112
254.973554,76.570323,133.998066,9896.714274
254.976072,172.283227,172.283227,9915.856854
254.978590,76.570323,172.283227,9820.143950
254.981107,76.570323,172.283227,9820.143950
254.983625,19.142581,210.568389,9858.429112
254.986143,76.570323,153.140646,9858.429112
254.988661,114.855485,172.283227,9877.571693
254.991179,38.285162,76.570323,9858.429112
254.993697,57.427742,114.855485,9781.858789
254.996215,19.142581,191.425808,9801.001370
254.998733,76.570323,172.283227,9858.429112
255.001251,76.570323,210.568389,9820.143950
255.003769,76.570323,114.855485,9762.716208
255.006287,76.570323,172.283227,9877.571693
255.008805,57.427742,191.425808,9877.571693
255.011323,38.285162,172.283227,9896.714274
255.013841,95.712904,172.283227,9858.429112
255.016359,76.570323,210.568389,9820.143950
255.018876,38.285162,76.570323,9762.716208
255.021405,76.570323,153.140646,9877.571693
255.023934,76.570323,153.140646,9839.286531
255.026462,95.712904,287.138712,9820.143950
255.028991,76.570323,172.283227,9858.429112
255.031520,76.570323,191.425808,9801.001370
255.034048,76.570323,172.283227,9877.571693
255.036577,95.712904,133.998066,9858.429112
255.039105,95.712904,114.855485,9839.286531
255.041634,76.570323,172.283227,9858.429112
255.044163,19.142581,133.998066,9896.714274
255.046691,76.570323,210.568389,9762.716208
255.049220,133.998066,133.998066,9801.001370
255.051749,19.142581,153.140646,9801.001370
255.054277,57.427742,172.283227,9877.571693
255.056806,19.142581,133.998066,9839.286531
255.059335,76.570323,172.283227,9820.143950
255.061863,57.427742,114.855485,9896.714274
255.064392,153.140646,153.140646,9762.716208
255.066920,133.998066,210.568389,9858.429112
255.069449,114.855485,153.140646,9858.429112
255.071978,38.285162,248.853550,9801.001370
255.074506,19.142581,191.425808,9858.429112
255.077035,19.142581,172.283227,9801.001370
255.079564,19.142581,153.140646,9801.001370
255.082092,76.570323,114.855485,9858.429112
255.084621,19.142581,210.568389,9801.001370
255.087149,114.855485,114.855485,9858.429112
255.089678,76.570323,229.710970,9877.571693
255.092207,38.285162,191.425808,9724.431046
255.094735,114.855485,172.283227,9934.999435
255.097264,76.570323,229.710970,9820.143950
255.099793,76.570323,172.283227,9762.716208
255.102321,76.570323,153.140646,9801.001370
255.104850,95.712904,172.283227,9877.571693
255.107379,19.142581,153.140646,9801.001370
255.109907,133.998066,172.283227,9877.571693
255.112436,76.570323,114.855485,9877.571693
255.114964,19.142581,153.140646,9839.286531
255.117493,19.142581,248.853550,9801.001370
255.120022,38.285162,210.568389,9896.714274
255.122550,57.427742,76.570323,9858.429112
255.125079,19.142581,133.998066,9801.001370
255.127608,19.142581,172.283227,9839.286531
255.130136,114.855485,229.710970,9820.143950
255.132665,76.570323,210.568389,9858.429112
255.135193,95.712904,172.283227,9820.143950
255.137722,19.142581,172.283227,9839.286531
255.140251,95.712904,95.712904,9858.429112
255.142756,76.570323,172.283227,9858.429112
255.145260,76.570323,114.855485,9762.716208
255.147765,114.855485,172.283227,9858.429112
255.150270,38.285162,114.855485,9915.856854
255.152775,19.142581,248.853550,9801.001370
255.155280,95.712904,172.283227,9877.571693
255.157785,57.427742,153.140646,9877.571693
255.160290,76.570323,210.568389,9877.571693
255.162794,76.570323,114.855485,9820.143950
255.165299,114.855485,153.140646,9896.714274
255.167804,38.285162,76.570323,9839.286531
255.170309,76.570323,210.568389,9820.143950
255.172814,76.570323,229.710970,9762.716208
255.175319,76.570323,153.140646,9762.716208
255.177823,153.140646,133.998066,9934.999435
255.180328,57.427742,95.712904,9781.858789
255.182833,19.142581,153.140646,9801.001370
255.185338,57.427742,210.568389,9896.714274
255.187843,76.570323,267.996131,9781.858789
255.190348,38.285162,210.568389,9896.714274
255.192853,38.285162,76.570323,9839.286531
255.195357,-19.142581,133.998066,9820.143950
255.197862,76.570323,191.425808,9762.716208
255.200367,76.570323,229.710970,9762.716208
255.202872,114.855485,191.425808,9762.716208
255.205377,114.855485,133.998066,9781.858789
255.207882,95.712904,114.855485,9801.001370
255.210386,57.427742,172.283227,9934.999435
255.212891,114.855485,229.710970,9820.143950
255.215396,95.712904,248.853550,9934.999435
255.217901,133.998066,153.140646,9801.001370
255.220406,57.427742,133.998066,9934.999435
255.222924,76.570323,114.855485,9762.716208
255.225442,57.427742,153.140646,9934.999435
255.227960,114.855485,172.283227,9877.571693
255.230478,19.142581,248.853550,9896.714274
255.232996,-19.142581,153.140646,9896.714274
255.235514,38.285162,76.570323,9877.571693
255.238032,76.570323,172.283227,9858.429112
255.240550,133.998066,191.425808,9877.571693
255.243068,191.425808,191.425808,9781.858789
255.245586,57.427742,153.140646,9877.571693
255.248104,95.712904,210.568389,9858.429112
255.250622,19.142581,95.712904,9934.999435
255.253140,76.570323,172.283227,9858.429112
255.255658,38.285162,210.568389,9877.571693
255.258176,76.570323,210.568389,9820.143950
255.260694,76.570323,229.710970,9820.143950
255.263212,19.142581,114.855485,9858.429112
255.265730,57.427742,172.283227,9896.714274
255.268248,38.285162,153.140646,9896.714274
255.270766,-38.285162,172.283227,9839.286531
255.273284,-19.142581,153.140646,9896.714274
255.275802,76.570323,133.998066,9954.142016
255.278320,153.140646,95.712904,9896.714274
255.280838,76.570323,153.140646,9801.001370
255.283356,76.570323,191.425808,9801.001370
255.285874,76.570323,210.568389,9820.143950
255.288392,76.570323,114.855485,9877.571693
255.290911,57.427742,95.712904,9858.429112
255.293429,76.570323,133.998066,9896.714274
255.295947,19.142581,210.568389,9858.429112
255.298465,57.427742,95.712904,9839.286531
255.300983,114.855485,172.283227,9877.571693
255.303501,57.427742,95.712904,9896.714274
255.306019,19.142581,191.425808,9858.429112
255.308537,76.570323,210.568389,9801.001370
255.311055,76.570323,210.568389,9820.143950
255.313573,19.142581,133.998066,9839.286531
255.316091,76.570323,210.568389,9877.571693
255.318609,76.570323,210.568389,9877.571693
255.321127,114.855485,133.998066,9934.999435
255.323655,76.570323,210.568389,9762.716208
255.326184,19.142581,210.568389,9858.429112
255.328713,76.570323,114.855485,9877.571693
255.331243,114.855485,210.568389,9839.286531
255.333772,38.285162,114.855485,9801.001370
255.336301,114.855485,210.568389,9858.429112
255.338831,76.570323,210.568389,9877.571693
255.341360,76.570323,172.283227,9801.001370
255.343889,95.712904,210.568389,9820.143950
255.346418,114.855485,229.710970,9877.571693
255.348948,38.285162,172.283227,9896.714274
255.351477,38.285162,76.570323,9820.143950
255.354006,19.142581,191.425808,9896.714274
255.356536,19.142581,153.140646,9839.286531
255.359065,57.427742,191.425808,9743.573627
255.361594,38.285162,172.283227,9896.714274
255.364123,19.142581,172.283227,9839.286531
255.366653,76.570323,210.568389,9820.143950
255.369182,57.427742,210.568389,9896.714274
255.371711,133.998066,153.140646,9877.571693
255.374241,114.855485,95.712904,9781.858789
255.376770,153.140646,210.568389,9877.571693
255.379299,38.285162,133.998066,9839.286531
255.381829,19.142581,153.140646,9896.714274
255.384358,76.570323,191.425808,9858.429112
255.386887,114.855485,153.140646,9858.429112
255.389416,57.427742,95.712904,9839.286531
255.391946,76.570323,191.425808,9877.571693
255.394475,114.855485,210.568389,9877.571693
255.397004,57.427742,287.138712,9801.001370
255.399534,19.142581,153.140646,9839.286531
255.402063,76.570323,153.140646,9762.716208
255.404592,57.427742,95.712904,9839.286531
255.407122,76.570323,172.283227,9820.143950
255.409651,19.142581,191.425808,9820.143950
255.412180,76.570323,191.425808,9762.716208
255.414709,76.570323,172.283227,9877.571693
255.417239,76.570323,172.283227,9820.143950
255.419768,19.142581,76.570323,9915.856854
255.422297,114.855485,172.283227,9820.143950
255.424836,114.855485,210.568389,9877.571693
255.427374,57.427742,191.425808,9934.999435
255.429913,38.285162,133.998066,9820.143950
255.432452,57.427742,153.140646,9934.999435
255.434990,19.142581,191.425808,9820.143950
255.437529,76.570323,172.283227,9858.429112
255.440067,57.427742,172.283227,9934.999435
255.442606,76.570323,114.855485,9877.571693
255.445145,19.142581,153.140646,9858.429112
255.447683,95.712904,153.140646,9858.429112
255.450222,76.570323,114.855485,9858.429112
255.452760,76.570323,114.855485,9839.286531
255.455299,76.570323,210.568389,9820.143950
255.457838,19.142581,133.998066,9858.429112
255.460376,95.712904,172.283227,9839.286531
255.462915,114.855485,114.855485,9820.143950
255.465453,19.142581,153.140646,9839.286531
255.467992,114.855485,210.568389,9858.429112
255.470531,57.427742,153.140646,9934.999435
255.473069,76.570323,210.568389,9839.286531
255.475608,-0.000000,248.853550,9896.714274
255.478146,95.712904,172.283227,9762.716208
255.480685,38.285162,172.283227,9915.856854
255.483223,95.712904,133.998066,9877.571693
255.485762,114.855485,153.140646,9877.571693
255.488301,153.140646,114.855485,9858.429112
255.490839,95.712904,172.283227,9858.429112
255.493378,76.570323,172.283227,9762.716208
255.495916,57.427742,248.853550,9877.571693
255.498455,57.427742,114.855485,9801.001370
255.500994,57.427742,95.712904,9896.714274
255.503532,19.142581,191.425808,9801.001370
255.506071,76.570323,114.855485,9877.571693
255.508609,76.570323,172.283227,9801.001370
255.511148,76.570323,172.283227,9820.143950
255.513687,19.142581,172.283227,9839.286531
255.516225,76.570323,153.140646,9839.286531
255.518764,19.142581,153.140646,9781.858789
255.521302,114.855485,191.425808,9762.716208
255.523841,95.712904,172.283227,9820.143950
255.526387,38.285162,210.568389,9839.286531
255.528932,95.712904,95.712904,9858.429112
255.531478,57.427742,248.853550,9934.999435
255.534024,-0.000000,153.140646,9896.714274
255.536569,76.570323,114.855485,9877.571693
255.539115,76.570323,172.283227,9877.571693
255.541661,76.570323,114.855485,9877.571693
255.544207,19.142581,153.140646,9820.143950
255.546752,57.427742,153.140646,9934.999435
255.549298,19.142581,153.140646,9820.143950
255.551844,153.140646,133.998066,9934.999435
255.554389,57.427742,95.712904,9839.286531
255.556935,57.427742,210.568389,9934.999435
255.559481,76.570323,210.568389,9877.571693
255.562026,19.142581,153.140646,9896.714274
255.564572,19.142581,133.998066,9858.429112
255.567118,114.855485,210.568389,9820.143950
255.569664,76.570323,153.140646,9801.001370
255.572209,95.712904,210.568389,9858.429112
255.574755,38.285162,172.283227,9915.856854
255.577301,19.142581,248.853550,9896.714274
255.579846,95.712904,191.425808,9858.429112
255.582392,-0.000000,153.140646,9858.429112
255.584938,76.570323,133.998066,9896.714274
255.587484,153.140646,95.712904,9801.001370
255.590029,57.427742,95.712904,9839.286531
255.592575,76.570323,172.283227,9877.571693
255.595121,57.427742,210.568389,9820.143950
255.597666,76.570323,210.568389,9762.716208
255.600212,114.855485,114.855485,9877.571693
255.602758,57.427742,153.140646,9858.429112
255.605303,76.570323,191.425808,9858.429112
255.607849,95.712904,229.710970,9801.001370
255.610395,19.142581,191.425808,9896.714274
255.612941,76.570323,172.283227,9877.571693
255.615486,76.570323,114.855485,9858.429112
255.618032,95.712904,172.283227,9762.716208
255.620578,76.570323,172.283227,9858.429112
255.623123,19.142581,191.425808,9839.286531
255.625669,76.570323,229.710970,9858.429112
255.628220,76.570323,229.710970,9877.571693
255.630771,76.570323,172.283227,9839.286531
255.633322,114.855485,172.283227,9858.429112
255.635872,57.427742,95.712904,9801.001370
255.638423,19.142581,153.140646,9858.429112
255.640974,76.570323,191.425808,9820.143950
255.643525,76.570323,172.283227,9839.286531
255.646076,76.570323,229.710970,9839.286531
255.648627,95.712904,172.283227,9934.999435
255.651177,76.570323,114.855485,9839.286531
255.653728,133.998066,114.855485,9858.429112
255.656279,76.570323,114.855485,9839.286531
255.658830,114.855485,114.855485,9820.143950
255.661381,76.570323,210.568389,9858.429112
255.663932,19.142581,153.140646,9820.143950
255.666482,95.712904,172.283227,9877.571693
255.669033,76.570323,210.568389,9877.571693
255.671584,38.285162,153.140646,9724.431046
255.674135,114.855485,229.710970,9858.429112
255.676686,19.142581,133.998066,9801.001370
255.679237,95.712904,114.855485,9762.716208
255.681787,95.712904,114.855485,9839.286531
255.684338,76.570323,172.283227,9858.429112
255.686889,76.570323,210.568389,9820.143950
255.689440,19.142581,210.568389,9820.143950
255.691991,19.142581,153.140646,9896.714274
255.694542,57.427742,95.712904,9896.714274
255.697092,76.570323,210.568389,9839.286531
255.699643,95.712904,153.140646,9801.001370
255.702194,19.142581,210.568389,9820.143950
255.704745,114.855485,210.568389,9839.286531
255.707296,76.570323,153.140646,9858.429112
255.709847,76.570323,153.140646,9839.286531
255.712397,76.570323,114.855485,9877.571693
255.714948,76.570323,114.855485,9762.716208
255.717499,76.570323,172.283227,9839.286531
255.720050,19.142581,153.140646,9801.001370
255.722601,57.427742,95.712904,9820.143950
255.725152,76.570323,172.283227,9877.571693
255.727702,57.427742,133.998066,9934.999435
255.730257,57.427742,191.425808,9743.573627
255.732812,-19.142581,248.853550,9801.001370
255.735367,76.570323,172.283227,9858.429112
255.737922,76.570323,114.855485,9820.143950
255.740476,57.427742,191.425808,9896.714274
255.743031,76.570323,172.283227,9877.571693
255.745586,19.142581,229.710970,9762.716208
255.748141,76.570323,172.283227,9877.571693
255.750696,133.998066,210.568389,9839.286531
255.753250,76.570323,191.425808,9820.143950
255.755805,76.570323,229.710970,9877.571693
255.758360,19.142581,153.140646,9858.429112
255.760915,76.570323,191.425808,9820.143950
255.763470,19.142581,133.998066,9858.429112
255.766024,38.285162,76.570323,9858.429112
255.768579,114.855485,210.568389,9858.429112
255.771134,19.142581,133.998066,9896.714274
255.773689,76.570323,153.140646,9801.001370
255.776244,38.285162,191.425808,9915.856854
255.778798,19.142581,133.998066,9781.858789
255.781353,57.427742,95.712904,9896.714274
255.783908,76.570323,114.855485,9820.143950
255.786463,76.570323,210.568389,9801.001370
255.789018,19.142581,191.425808,9801.001370
255.791572,114.855485,114.855485,9839.286531
255.794127,76.570323,191.425808,9877.571693
255.796682,114.855485,172.283227,9858.429112
255.799237,95.712904,114.855485,9858.429112
255.801792,76.570323,210.568389,9839.286531
255.804346,-0.000000,210.568389,9896.714274
255.806901,76.570323,172.283227,9820.143950
255.809456,57.427742,172.283227,9934.999435
255.812011,133.998066,114.855485,9877.571693
255.814565,38.285162,76.570323,9820.143950
255.817120,114.855485,229.710970,9839.286531
255.819675,19.142581,153.140646,9781.858789
255.822230,76.570323,210.568389,9858.429112
255.824785,57.427742,133.998066,9877.571693
255.827339,57.427742,95.712904,9896.714274
255.829894,19.142581,133.998066,9896.714274
255.832452,19.142581,153.140646,9801.001370
255.835010,76.570323,172.283227,9858.429112
255.837567,114.855485,172.283227,9877.571693
255.840125,76.570323,172.283227,9877.571693
255.842683,19.142581,248.853550,9801.001370
255.845241,76.570323,153.140646,9858.429112
255.847798,38.285162,191.425808,9877.571693
255.850356,57.427742,133.998066,9954.142016
255.852914,76.570323,172.283227,9877.571693
255.855472,95.712904,153.140646,9877.571693
255.858029,19.142581,248.853550,9896.714274
255.860587,19.142581,191.425808,9781.858789
255.863145,153.140646,95.712904,9896.714274
255.865703,172.283227,153.140646,9896.714274
255.868260,114.855485,210.568389,9877.571693
255.870818,76.570323,191.425808,9839.286531
255.873376,133.998066,172.283227,9820.143950
255.875934,76.570323,114.855485,9839.286531
255.878491,95.712904,95.712904,9896.714274
255.881049,76.570323,114.855485,9820.143950
255.883607,95.712904,191.425808,9934.999435
255.886164,76.570323,210.568389,9877.571693
255.888722,76.570323,210.568389,9801.001370
255.891280,76.570323,153.140646,9877.571693
255.893838,133.998066,114.855485,9839.286531
255.896395,57.427742,114.855485,9801.001370
255.898953,76.570323,172.283227,9877.571693
255.901511,57.427742,210.568389,9858.429112
255.904069,-19.142581,210.568389,9858.429112
255.906626,95.712904,153.140646,9858.429112
255.909184,114.855485,210.568389,9801.001370
255.911742,19.142581,153.140646,9801.001370
255.914300,57.427742,172.283227,9896.714274
255.916857,76.570323,153.140646,9877.571693
255.919415,95.712904,172.283227,9858.429112
255.921973,133.998066,172.283227,9839.286531
255.924531,114.855485,210.568389,9877.571693
255.927088,38.285162,248.853550,9820.143950
255.929646,76.570323,191.425808,9839.286531
255.932204,114.855485,172.283227,9820.143950
255.934764,19.142581,153.140646,9839.286531
255.937323,57.427742,95.712904,9896.714274
255.939883,57.427742,172.283227,9896.714274
255.942443,19.142581,153.140646,9858.429112
255.945003,57.427742,191.425808,9858.429112
255.947563,114.855485,172.283227,9858.429112
255.950122,114.855485,210.568389,9820.143950
255.952682,153.140646,114.855485,9877.571693
255.955242,76.570323,210.568389,9820.143950
255.957802,76.570323,172.283227,9820.143950
255.960362,114.855485,76.570323,9896.714274
255.962921,76.570323,114.855485,9820.143950
255.965481,19.142581,153.140646,9896.714274
255.968041,76.570323,172.283227,9839.286531
255.970601,57.427742,153.140646,9877.571693
255.973161,76.570323,114.855485,9839.286531
255.975720,95.712904,114.855485,9839.286531
255.978280,38.285162,114.855485,9724.431046
255.980840,76.570323,172.283227,9858.429112
255.983400,76.570323,172.283227,9877.571693
255.985960,76.570323,210.568389,9839.286531
255.988519,191.425808,248.853550,9839.286531
255.991079,133.998066,248.853550,9839.286531
255.993639,76.570323,172.283227,9858.429112
255.996199,38.285162,114.855485,9781.858789
255.998759,76.570323,210.568389,9762.716208
256.001318,57.427742,133.998066,9877.571693
256.003878,19.142581,153.140646,9839.286531
256.006438,114.855485,172.283227,9820.143950
256.008998,76.570323,210.568389,9762.716208
256.011558,76.570323,172.283227,9820.143950
256.014117,19.142581,153.140646,9896.714274
256.016677,19.142581,172.283227,9858.429112
256.019237,19.142581,133.998066,9839.286531
256.021797,19.142581,153.140646,9839.286531
256.024357,-19.142581,191.425808,9839.286531
256.026916,38.285162,172.283227,9896.714274
256.029476,57.427742,114.855485,9839.286531
256.032036,76.570323,287.138712,9820.143950
256.034596,95.712904,153.140646,9801.001370
256.037157,76.570323,191.425808,9877.571693
256.039718,95.712904,172.283227,9858.429112
256.042279,19.142581,133.998066,9896.714274
256.044840,76.570323,172.283227,9858.429112
256.047401,57.427742,95.712904,9839.286531
256.049963,76.570323,210.568389,9858.429112
256.052524,76.570323,191.425808,9896.714274
256.055085,76.570323,191.425808,9820.143950
256.057646,19.142581,172.283227,9839.286531
256.060207,114.855485,133.998066,9896.714274
256.062768,57.427742,95.712904,9858.429112
256.065329,114.855485,172.283227,9762.716208
