#time,accel_x,accel_y,accel_z
292.082556,57.427742,114.855485,9858.429112
292.085749,114.855485,172.283227,9839.286531
292.088943,95.712904,114.855485,9877.571693
292.092136,95.712904,172.283227,9820.143950
292.095329,57.427742,95.712904,9858.429112
292.098522,76.570323,210.568389,9839.286531
292.101715,76.570323,153.140646,9839.286531
292.104909,57.427742,153.140646,9877.571693
292.108102,133.998066,76.570323,9896.714274
292.111295,95.712904,172.283227,9858.429112
292.114488,57.427742,287.138712,9858.429112
292.117681,57.427742,306.281293,9820.143950
292.120874,19.142581,248.853550,9801.001370
292.124068,76.570323,229.710970,9877.571693
292.127261,133.998066,133.998066,9877.571693
292.130454,76.570323,114.855485,9858.429112
292.133647,19.142581,133.998066,9896.714274
292.136840,19.142581,57.427742,9973.284597
292.140034,76.570323,114.855485,9839.286531
292.143227,19.142581,191.425808,9801.001370
292.146420,133.998066,229.710970,9820.143950
292.149613,95.712904,191.425808,9762.716208
292.152806,76.570323,38.285162,9724.431046
292.156000,191.425808,76.570323,9781.858789
292.159193,57.427742,95.712904,9781.858789
292.162386,95.712904,191.425808,9705.288466
292.165579,153.140646,210.568389,9934.999435
292.168772,19.142581,287.138712,9934.999435
292.171965,19.142581,210.568389,9877.571693
292.175159,153.140646,133.998066,9992.427178
292.178352,57.427742,248.853550,9973.284597
292.181545,38.285162,76.570323,9820.143950
292.184738,133.998066,76.570323,10011.569758
292.187645,95.712904,153.140646,9992.427178
292.190552,-76.570323,191.425808,9686.145885
292.193459,76.570323,210.568389,9762.716208
292.196366,114.855485,267.996131,9724.431046
292.199273,114.855485,76.570323,9609.575562
292.202180,76.570323,210.568389,9820.143950
292.205087,-38.285162,133.998066,9762.716208
292.207994,38.285162,153.140646,9743.573627
292.210901,114.855485,229.710970,9762.716208
292.213808,114.855485,210.568389,9858.429112
292.216714,114.855485,114.855485,9839.286531
292.219621,57.427742,153.140646,9934.999435
292.222528,38.285162,133.998066,9915.856854
292.225435,38.285162,306.281293,10030.712339
292.228342,38.285162,114.855485,9915.856854
292.231249,114.855485,191.425808,9973.284597
292.234156,38.285162,133.998066,9858.429112
292.237063,133.998066,114.855485,9877.571693
292.239970,114.855485,210.568389,9858.429112
292.242877,57.427742,172.283227,9877.571693
292.245784,76.570323,210.568389,9858.429112
292.248691,57.427742,153.140646,9743.573627
292.251598,-19.142581,133.998066,9839.286531
292.254505,76.570323,114.855485,9820.143950
292.257412,57.427742,229.710970,9801.001370
292.260318,57.427742,133.998066,9762.716208
292.263225,19.142581,191.425808,9839.286531
292.266132,19.142581,191.425808,9858.429112
292.269039,38.285162,76.570323,9858.429112
292.271946,38.285162,191.425808,9896.714274
292.274853,95.712904,172.283227,9839.286531
292.277760,133.998066,153.140646,9820.143950
292.280667,76.570323,114.855485,9858.429112
292.283574,114.855485,229.710970,9858.429112
292.286481,95.712904,191.425808,9743.573627
292.289388,114.855485,287.138712,9877.571693
292.292295,153.140646,287.138712,9858.429112
292.295202,38.285162,229.710970,9839.286531
292.298109,57.427742,191.425808,9973.284597
292.301016,57.427742,191.425808,9934.999435
292.303759,76.570323,114.855485,9858.429112
292.306502,76.570323,172.283227,9839.286531
292.309246,76.570323,210.568389,9877.571693
292.311989,114.855485,172.283227,9877.571693
292.314733,76.570323,114.855485,9877.571693
292.317476,76.570323,210.568389,9820.143950
292.320219,19.142581,210.568389,9839.286531
292.322963,76.570323,172.283227,9820.143950
292.325706,19.142581,133.998066,9801.001370
292.328449,38.285162,114.855485,9667.003304
292.331193,114.855485,57.427742,9781.858789
292.333936,19.142581,133.998066,9839.286531
292.336680,76.570323,114.855485,9820.143950
292.339423,76.570323,191.425808,9877.571693
292.342166,95.712904,153.140646,9877.571693
292.344910,114.855485,229.710970,9877.571693
292.347653,95.712904,248.853550,9877.571693
292.350397,114.855485,210.568389,9877.571693
292.353140,57.427742,191.425808,9954.142016
292.355883,57.427742,95.712904,9896.714274
292.358627,76.570323,76.570323,9915.856854
292.361370,57.427742,95.712904,9839.286531
292.364114,38.285162,172.283227,9915.856854
292.366857,114.855485,287.138712,9839.286531
292.369600,133.998066,287.138712,9820.143950
292.372344,38.285162,210.568389,9839.286531
292.375087,19.142581,133.998066,9839.286531
292.377831,57.427742,38.285162,9839.286531
292.380574,76.570323,114.855485,9762.716208
292.383317,19.142581,191.425808,9781.858789
292.386061,114.855485,191.425808,9762.716208
292.388804,76.570323,210.568389,9820.143950
292.391547,19.142581,172.283227,9896.714274
292.394291,19.142581,153.140646,9896.714274
292.397034,19.142581,191.425808,9896.714274
292.399778,133.998066,229.710970,9877.571693
292.402521,76.570323,114.855485,9934.999435
292.405264,57.427742,95.712904,9896.714274
292.408008,57.427742,133.998066,9934.999435
292.410751,95.712904,248.853550,9934.999435
292.413401,114.855485,306.281293,9896.714274
292.416050,57.427742,229.710970,9839.286531
292.418700,133.998066,153.140646,9858.429112
292.421349,76.570323,153.140646,9762.716208
292.423999,57.427742,95.712904,9820.143950
292.426648,76.570323,191.425808,9839.286531
292.429298,114.855485,191.425808,9858.429112
292.431947,76.570323,267.996131,9896.714274
292.434596,95.712904,153.140646,9762.716208
292.437246,19.142581,95.712904,9934.999435
292.439895,76.570323,114.855485,9877.571693
292.442545,19.142581,172.283227,9839.286531
292.445194,95.712904,248.853550,9858.429112
292.447844,76.570323,229.710970,9820.143950
292.450493,114.855485,95.712904,9801.001370
292.453143,38.285162,38.285162,9820.143950
292.455792,114.855485,210.568389,9877.571693
292.458442,38.285162,229.710970,9896.714274
292.461091,133.998066,229.710970,9877.571693
292.463741,133.998066,210.568389,9858.429112
292.466390,95.712904,133.998066,9954.142016
292.469040,95.712904,76.570323,9934.999435
292.471689,57.427742,191.425808,9877.571693
292.474338,133.998066,325.423874,9915.856854
292.476988,38.285162,267.996131,9877.571693
292.479637,95.712904,172.283227,9820.143950
292.482287,114.855485,114.855485,9762.716208
292.484936,95.712904,114.855485,9896.714274
292.487586,133.998066,229.710970,9858.429112
292.490235,76.570323,210.568389,9820.143950
292.492885,19.142581,133.998066,9801.001370
292.495534,38.285162,76.570323,9801.001370
292.498184,76.570323,114.855485,9877.571693
292.500833,76.570323,172.283227,9858.429112
292.503483,38.285162,267.996131,9762.716208
292.506132,57.427742,248.853550,9762.716208
292.508782,38.285162,76.570323,9839.286531
292.511431,57.427742,133.998066,9877.571693
292.514081,76.570323,57.427742,10011.569758
292.516730,76.570323,114.855485,9839.286531
292.519314,57.427742,248.853550,9877.571693
292.521898,114.855485,191.425808,9934.999435
292.524482,19.142581,153.140646,9896.714274
292.527067,95.712904,95.712904,9858.429112
292.529651,153.140646,57.427742,9896.714274
292.532235,114.855485,114.855485,9896.714274
292.534819,19.142581,248.853550,9801.001370
292.537403,114.855485,153.140646,9877.571693
292.539987,95.712904,114.855485,9762.716208
292.542571,57.427742,95.712904,9896.714274
292.545156,57.427742,133.998066,9877.571693
292.547740,38.285162,267.996131,9820.143950
292.550324,19.142581,172.283227,9762.716208
292.552908,57.427742,114.855485,9896.714274
292.555492,38.285162,76.570323,9839.286531
292.558076,76.570323,114.855485,9801.001370
292.560660,38.285162,133.998066,9839.286531
292.563245,57.427742,229.710970,9858.429112
292.565829,114.855485,210.568389,9820.143950
292.568413,95.712904,114.855485,9877.571693
292.570997,114.855485,114.855485,9820.143950
292.573581,114.855485,172.283227,9839.286531
292.576165,114.855485,210.568389,9858.429112
292.578749,133.998066,267.996131,9915.856854
292.581333,95.712904,172.283227,9801.001370
292.583918,19.142581,95.712904,9934.999435
292.586502,57.427742,133.998066,9934.999435
292.589086,19.142581,95.712904,9877.571693
292.591670,57.427742,229.710970,9781.858789
292.594254,38.285162,325.423874,9858.429112
292.596838,76.570323,114.855485,9877.571693
292.599422,19.142581,133.998066,9858.429112
292.602007,76.570323,76.570323,9896.714274
292.604591,19.142581,153.140646,9781.858789
292.607175,114.855485,229.710970,9858.429112
292.609759,57.427742,153.140646,9762.716208
292.612343,76.570323,153.140646,9801.001370
292.614927,38.285162,38.285162,9877.571693
292.617511,114.855485,133.998066,9954.142016
292.620096,76.570323,153.140646,9820.143950
292.622634,57.427742,306.281293,9896.714274
292.625173,76.570323,210.568389,9877.571693
292.627712,57.427742,153.140646,9877.571693
292.630251,76.570323,95.712904,9934.999435
292.632789,95.712904,114.855485,9896.714274
292.635328,76.570323,229.710970,9877.571693
292.637867,133.998066,287.138712,9858.429112
292.640406,76.570323,210.568389,9839.286531
292.642944,114.855485,133.998066,9877.571693
292.645483,114.855485,95.712904,9896.714274
292.648022,114.855485,210.568389,9858.429112
292.650561,76.570323,229.710970,9743.573627
292.653100,76.570323,210.568389,9820.143950
292.655638,57.427742,114.855485,9781.858789
292.658177,57.427742,95.712904,9858.429112
292.660716,133.998066,114.855485,9820.143950
292.663255,19.142581,191.425808,9839.286531
292.665793,76.570323,114.855485,9820.143950
292.668332,76.570323,114.855485,9820.143950
292.670871,19.142581,133.998066,9839.286531
292.673410,76.570323,76.570323,9915.856854
292.675948,57.427742,248.853550,9934.999435
292.678487,76.570323,229.710970,9858.429112
292.681026,57.427742,229.710970,9896.714274
292.683565,57.427742,95.712904,9858.429112
292.686103,76.570323,38.285162,9915.856854
292.688642,153.140646,95.712904,9839.286531
292.691181,76.570323,210.568389,9801.001370
292.693720,57.427742,287.138712,9801.001370
292.696259,76.570323,210.568389,9839.286531
292.698797,57.427742,95.712904,9896.714274
292.701336,95.712904,95.712904,9858.429112
292.703875,95.712904,191.425808,9820.143950
292.706414,95.712904,210.568389,9858.429112
292.708952,57.427742,191.425808,9934.999435
292.711491,19.142581,114.855485,9820.143950
292.714030,19.142581,191.425808,9820.143950
292.716569,57.427742,95.712904,9801.001370
292.719107,95.712904,114.855485,9820.143950
292.721646,95.712904,229.710970,9820.143950
292.724153,76.570323,172.283227,9820.143950
292.726660,95.712904,95.712904,9781.858789
292.729167,19.142581,95.712904,9934.999435
292.731674,133.998066,133.998066,9896.714274
292.734181,114.855485,210.568389,9877.571693
292.736687,38.285162,325.423874,9858.429112
292.739194,76.570323,133.998066,9896.714274
292.741701,95.712904,153.140646,9934.999435
292.744208,95.712904,95.712904,9896.714274
292.746715,114.855485,172.283227,9877.571693
292.749221,95.712904,153.140646,9801.001370
292.751728,38.285162,191.425808,9915.856854
292.754235,76.570323,153.140646,9801.001370
292.756742,76.570323,153.140646,9858.429112
292.759249,76.570323,133.998066,9915.856854
292.761756,114.855485,210.568389,9820.143950
292.764262,57.427742,287.138712,9781.858789
292.766769,76.570323,153.140646,9762.716208
292.769276,114.855485,114.855485,9781.858789
292.771783,133.998066,76.570323,9915.856854
292.774290,76.570323,114.855485,9820.143950
292.776797,76.570323,210.568389,9858.429112
292.779303,57.427742,306.281293,9801.001370
292.781810,114.855485,210.568389,9934.999435
292.784317,95.712904,76.570323,9896.714274
292.786824,76.570323,114.855485,9858.429112
292.789331,95.712904,172.283227,9839.286531
292.791838,95.712904,287.138712,9858.429112
292.794344,76.570323,210.568389,9877.571693
292.796851,38.285162,95.712904,9839.286531
292.799358,38.285162,172.283227,9915.856854
292.801865,76.570323,172.283227,9858.429112
292.804372,76.570323,210.568389,9820.143950
292.806878,114.855485,287.138712,9839.286531
292.809385,76.570323,210.568389,9762.716208
292.811892,95.712904,133.998066,9934.999435
292.814399,57.427742,133.998066,9877.571693
292.816906,38.285162,76.570323,9858.429112
292.819413,57.427742,287.138712,9896.714274
292.821919,57.427742,287.138712,9781.858789
292.824405,76.570323,172.283227,9781.858789
292.826890,114.855485,114.855485,9820.143950
292.829375,153.140646,95.712904,9896.714274
292.831861,19.142581,153.140646,9781.858789
292.834346,95.712904,229.710970,9801.001370
292.836831,76.570323,210.568389,9858.429112
292.839316,38.285162,133.998066,9877.571693
292.841802,153.140646,133.998066,9934.999435
292.844287,38.285162,172.283227,9896.714274
292.846772,57.427742,287.138712,9820.143950
292.849258,114.855485,229.710970,9762.716208
292.851743,76.570323,114.855485,9801.001370
292.854228,95.712904,133.998066,9934.999435
292.856713,76.570323,114.855485,9877.571693
292.859199,19.142581,153.140646,9801.001370
292.861684,114.855485,229.710970,9858.429112
292.864169,76.570323,210.568389,9877.571693
292.866655,76.570323,153.140646,9820.143950
292.869140,57.427742,133.998066,9934.999435
292.871625,19.142581,133.998066,9839.286531
292.874110,95.712904,114.855485,9858.429112
292.876596,19.142581,210.568389,9858.429112
292.879081,76.570323,229.710970,9820.143950
292.881566,57.427742,153.140646,9762.716208
292.884052,19.142581,153.140646,9896.714274
292.886537,57.427742,95.712904,9801.001370
292.889022,76.570323,114.855485,9839.286531
292.891507,76.570323,191.425808,9820.143950
292.893993,76.570323,114.855485,9820.143950
292.896478,114.855485,114.855485,9858.429112
292.898963,114.855485,114.855485,9877.571693
292.901449,57.427742,114.855485,9801.001370
292.903934,114.855485,172.283227,9801.001370
292.906419,191.425808,172.283227,9820.143950
292.908904,76.570323,153.140646,9877.571693
292.911390,57.427742,95.712904,9801.001370
292.913875,76.570323,114.855485,9858.429112
292.916360,76.570323,191.425808,9858.429112
292.918846,95.712904,191.425808,9877.571693
292.921331,76.570323,172.283227,9858.429112
292.923805,76.570323,210.568389,9877.571693
292.926279,57.427742,133.998066,9934.999435
292.928753,19.142581,153.140646,9839.286531
292.931227,38.285162,210.568389,9781.858789
292.933702,114.855485,229.710970,9877.571693
292.936176,76.570323,172.283227,9762.716208
292.938650,38.285162,114.855485,9896.714274
292.941124,57.427742,133.998066,9877.571693
292.943598,133.998066,172.283227,9801.001370
292.946072,114.855485,287.138712,9820.143950
292.948546,19.142581,210.568389,9858.429112
292.951021,95.712904,172.283227,9820.143950
292.953495,76.570323,210.568389,9877.571693
292.955969,114.855485,76.570323,9973.284597
292.958443,133.998066,191.425808,9858.429112
292.960917,95.712904,210.568389,9762.716208
292.963391,114.855485,191.425808,9934.999435
292.965865,76.570323,114.855485,9801.001370
292.968340,38.285162,38.285162,9877.571693
292.970814,57.427742,133.998066,9915.856854
292.973288,38.285162,248.853550,9858.429112
292.975762,57.427742,287.138712,9896.714274
292.978236,57.427742,114.855485,9839.286531
292.980710,57.427742,57.427742,9839.286531
292.983184,38.285162,38.285162,9877.571693
292.985659,57.427742,114.855485,9781.858789
292.988133,38.285162,267.996131,9839.286531
292.990607,153.140646,287.138712,9801.001370
292.993081,114.855485,114.855485,9877.571693
292.995555,76.570323,172.283227,9858.429112
292.998029,57.427742,95.712904,9896.714274
293.000503,19.142581,210.568389,9839.286531
293.002978,95.712904,306.281293,9781.858789
293.005452,76.570323,210.568389,9839.286531
293.007926,38.285162,76.570323,9877.571693
293.010400,57.427742,153.140646,9934.999435
293.012874,95.712904,191.425808,9877.571693
293.015348,95.712904,306.281293,9839.286531
293.017822,57.427742,287.138712,9801.001370
293.020297,95.712904,95.712904,9839.286531
293.022763,57.427742,95.712904,9858.429112
293.025230,114.855485,76.570323,9915.856854
293.027697,76.570323,210.568389,9762.716208
293.030164,19.142581,325.423874,9858.429112
293.032631,95.712904,229.710970,9781.858789
293.035098,19.142581,153.140646,9839.286531
293.037564,57.427742,95.712904,9896.714274
293.040031,38.285162,76.570323,9820.143950
293.042498,76.570323,287.138712,9743.573627
293.044965,172.283227,248.853550,9877.571693
293.047432,95.712904,229.710970,9820.143950
293.049898,19.142581,133.998066,9820.143950
293.052365,133.998066,76.570323,9915.856854
293.054832,76.570323,172.283227,9858.429112
293.057299,95.712904,287.138712,9820.143950
293.059766,57.427742,229.710970,9801.001370
293.062233,38.285162,76.570323,9820.143950
293.064699,76.570323,38.285162,9896.714274
293.067166,57.427742,133.998066,9934.999435
293.069633,57.427742,95.712904,9839.286531
293.072100,76.570323,267.996131,9801.001370
293.074567,76.570323,191.425808,9896.714274
293.077034,38.285162,76.570323,9877.571693
293.079500,57.427742,114.855485,9839.286531
293.081967,57.427742,95.712904,9839.286531
293.084434,95.712904,210.568389,9801.001370
293.086901,95.712904,229.710970,9801.001370
293.089368,19.142581,172.283227,9858.429112
293.091835,114.855485,38.285162,9839.286531
293.094301,76.570323,57.427742,9896.714274
293.096768,114.855485,210.568389,9820.143950
293.099235,19.142581,267.996131,9724.431046
293.101702,76.570323,229.710970,9762.716208
293.104169,-0.000000,133.998066,9896.714274
293.106636,57.427742,57.427742,9839.286531
293.109102,114.855485,133.998066,9915.856854
293.111569,76.570323,229.710970,9858.429112
293.114036,57.427742,248.853550,9839.286531
293.116503,57.427742,191.425808,9858.429112
293.118970,76.570323,210.568389,9858.429112
293.121429,57.427742,95.712904,9820.143950
293.123888,114.855485,114.855485,9858.429112
293.126347,76.570323,153.140646,9896.714274
293.128806,153.140646,229.710970,9801.001370
293.131266,19.142581,114.855485,9762.716208
293.133725,57.427742,95.712904,9896.714274
293.136184,19.142581,133.998066,9896.714274
293.138643,76.570323,172.283227,9820.143950
293.141102,114.855485,306.281293,9801.001370
293.143561,19.142581,210.568389,9896.714274
293.146021,57.427742,95.712904,9858.429112
293.148480,76.570323,76.570323,9915.856854
293.150939,38.285162,76.570323,9877.571693
293.153398,95.712904,191.425808,9839.286531
293.155857,114.855485,287.138712,9820.143950
293.158316,76.570323,229.710970,9858.429112
293.160776,114.855485,210.568389,9762.716208
293.163235,95.712904,95.712904,9839.286531
293.165694,76.570323,229.710970,9801.001370
293.168153,19.142581,153.140646,9896.714274
293.170612,114.855485,229.710970,9858.429112
293.173072,76.570323,172.283227,9858.429112
293.175531,38.285162,133.998066,9839.286531
293.177990,-19.142581,153.140646,9896.714274
293.180449,57.427742,229.710970,9839.286531
293.182908,76.570323,210.568389,9820.143950
293.185367,114.855485,153.140646,9839.286531
293.187827,76.570323,191.425808,9762.716208
293.190286,57.427742,95.712904,9896.714274
293.192745,114.855485,172.283227,9858.429112
293.195204,95.712904,210.568389,9839.286531
293.197663,57.427742,287.138712,9820.143950
293.200123,95.712904,210.568389,9877.571693
293.202582,76.570323,153.140646,9877.571693
293.205041,38.285162,114.855485,9915.856854
293.207500,76.570323,172.283227,9820.143950
293.209959,57.427742,287.138712,9839.286531
293.212418,133.998066,210.568389,9858.429112
293.214878,19.142581,153.140646,9858.429112
293.217337,38.285162,76.570323,9839.286531
293.219792,76.570323,172.283227,9762.716208
293.222247,114.855485,229.710970,9762.716208
293.224702,76.570323,191.425808,9877.571693
293.227157,76.570323,153.140646,9877.571693
293.229612,57.427742,95.712904,9896.714274
293.232067,76.570323,95.712904,9934.999435
293.234522,76.570323,191.425808,9877.571693
293.236977,57.427742,287.138712,9896.714274
293.239432,114.855485,229.710970,9858.429112
293.241887,57.427742,114.855485,9896.714274
293.244342,19.142581,172.283227,9896.714274
293.246797,76.570323,114.855485,9877.571693
293.249252,38.285162,114.855485,9839.286531
293.251707,76.570323,210.568389,9858.429112
293.254162,-0.000000,191.425808,9954.142016
293.256617,19.142581,153.140646,9839.286531
293.259072,38.285162,210.568389,9915.856854
293.261527,57.427742,172.283227,9781.858789
293.263982,76.570323,172.283227,9820.143950
293.266437,19.142581,248.853550,9839.286531
293.268892,19.142581,133.998066,9820.143950
293.271347,76.570323,229.710970,9877.571693
293.273803,57.427742,133.998066,9877.571693
293.276258,114.855485,95.712904,9858.429112
293.278713,57.427742,191.425808,9915.856854
293.281168,76.570323,172.283227,9801.001370
293.283623,19.142581,210.568389,9839.286531
293.286078,57.427742,133.998066,9934.999435
293.288533,76.570323,38.285162,9896.714274
293.290988,95.712904,114.855485,9877.571693
293.293443,114.855485,114.855485,9839.286531
293.295898,-0.000000,153.140646,9801.001370
293.298353,-0.000000,153.140646,9858.429112
293.300808,95.712904,153.140646,9877.571693
293.303263,114.855485,172.283227,9801.001370
293.305718,19.142581,153.140646,9858.429112
293.308173,133.998066,229.710970,9877.571693
293.310628,57.427742,114.855485,9858.429112
293.313083,38.285162,114.855485,9915.856854
293.315538,57.427742,76.570323,9896.714274
293.317902,76.570323,153.140646,9781.858789
293.320265,76.570323,210.568389,9858.429112
293.322628,57.427742,287.138712,9839.286531
293.324992,19.142581,153.140646,9781.858789
293.327355,76.570323,153.140646,9839.286531
293.329719,19.142581,133.998066,9839.286531
293.332082,38.285162,172.283227,9915.856854
293.334446,76.570323,229.710970,9858.429112
293.336809,114.855485,172.283227,9820.143950
293.339173,19.142581,133.998066,9877.571693
293.341536,114.855485,133.998066,9915.856854
293.343900,19.142581,191.425808,9896.714274
293.346263,76.570323,229.710970,9839.286531
293.348627,95.712904,287.138712,9858.429112
293.350990,114.855485,114.855485,9858.429112
293.353354,57.427742,95.712904,9896.714274
293.355717,38.285162,153.140646,9915.856854
293.358081,57.427742,114.855485,9781.858789
293.360444,133.998066,229.710970,9820.143950
293.362808,76.570323,248.853550,9820.143950
293.365171,95.712904,76.570323,9896.714274
293.367535,38.285162,38.285162,9877.571693
293.369898,76.570323,114.855485,9877.571693
293.372261,191.425808,248.853550,9801.001370
293.374625,19.142581,191.425808,9801.001370
293.376988,76.570323,172.283227,9762.716208
293.379352,133.998066,172.283227,9801.001370
293.381715,114.855485,76.570323,9896.714274
293.384079,76.570323,191.425808,9877.571693
293.386442,76.570323,229.710970,9839.286531
293.388806,76.570323,153.140646,9781.858789
293.391169,114.855485,153.140646,9762.716208
293.393533,76.570323,133.998066,9839.286531
293.395896,76.570323,172.283227,9858.429112
293.398260,76.570323,172.283227,9801.001370
293.400623,57.427742,191.425808,9934.999435
293.402987,38.285162,248.853550,9839.286531
293.405350,19.142581,114.855485,9934.999435
293.407714,38.285162,133.998066,9839.286531
293.410077,76.570323,114.855485,9820.143950
293.412470,76.570323,248.853550,9839.286531
293.414863,19.142581,191.425808,9801.001370
293.417256,76.570323,210.568389,9820.143950
293.419649,38.285162,76.570323,9877.571693
293.422042,57.427742,172.283227,9934.999435
293.424436,57.427742,172.283227,9877.571693
293.426829,76.570323,210.568389,9858.429112
293.429222,76.570323,210.568389,9820.143950
293.431615,95.712904,172.283227,9858.429112
293.434008,76.570323,153.140646,9858.429112
293.436401,76.570323,38.285162,9915.856854
293.438794,57.427742,229.710970,9801.001370
293.441187,114.855485,267.996131,9934.999435
293.443580,38.285162,306.281293,9877.571693
293.445973,38.285162,114.855485,9896.714274
293.448366,57.427742,95.712904,9801.001370
293.450759,153.140646,95.712904,9820.143950
293.453152,76.570323,210.568389,9820.143950
293.455545,76.570323,229.710970,9877.571693
293.457938,95.712904,229.710970,9801.001370
293.460332,57.427742,95.712904,9896.714274
293.462725,153.140646,133.998066,9934.999435
293.465118,19.142581,153.140646,9781.858789
293.467511,-19.142581,248.853550,9820.143950
293.469904,76.570323,210.568389,9858.429112
293.472297,-57.427742,172.283227,9781.858789
293.474690,76.570323,76.570323,9915.856854
293.477083,95.712904,76.570323,9954.142016
293.479476,57.427742,287.138712,9820.143950
293.481869,76.570323,229.710970,9820.143950
293.484262,19.142581,153.140646,9801.001370
293.486655,19.142581,133.998066,9858.429112
293.489048,76.570323,114.855485,9820.143950
293.491441,133.998066,172.283227,9839.286531
293.493835,19.142581,191.425808,9896.714274
293.496228,76.570323,210.568389,9820.143950
293.498621,76.570323,172.283227,9762.716208
293.501014,95.712904,114.855485,9877.571693
293.503407,38.285162,76.570323,9839.286531
293.505800,76.570323,172.283227,9762.716208
293.508216,76.570323,229.710970,9839.286531
293.510633,133.998066,229.710970,9781.858789
293.513049,76.570323,114.855485,9820.143950
293.515466,19.142581,133.998066,9801.001370
293.517882,38.285162,76.570323,9839.286531
293.520299,76.570323,210.568389,9877.571693
293.522715,95.712904,287.138712,9858.429112
293.525132,95.712904,172.283227,9877.571693
293.527548,76.570323,114.855485,9839.286531
293.529964,153.140646,95.712904,9820.143950
293.532381,76.570323,153.140646,9801.001370
293.534797,76.570323,210.568389,9839.286531
293.537214,19.142581,248.853550,9801.001370
293.539630,19.142581,172.283227,9820.143950
293.542047,57.427742,153.140646,9934.999435
293.544463,57.427742,95.712904,9781.858789
293.546880,19.142581,133.998066,9801.001370
293.549296,114.855485,229.710970,9858.429112
293.551713,76.570323,191.425808,9820.143950
293.554129,57.427742,0.000000,9896.714274
293.556546,-57.427742,76.570323,9858.429112
293.558962,76.570323,114.855485,9877.571693
293.561378,114.855485,191.425808,9801.001370
293.563795,114.855485,229.710970,9858.429112
293.566211,191.425808,153.140646,9858.429112
293.568628,19.142581,133.998066,9781.858789
293.571044,57.427742,133.998066,9877.571693
293.573461,95.712904,76.570323,9839.286531
293.575877,76.570323,172.283227,9877.571693
293.578294,114.855485,229.710970,9877.571693
293.580710,38.285162,210.568389,9915.856854
293.583127,76.570323,172.283227,9858.429112
293.585543,76.570323,210.568389,9858.429112
293.587960,114.855485,172.283227,9839.286531
293.590376,57.427742,248.853550,9934.999435
293.592792,76.570323,191.425808,9762.716208
293.595209,38.285162,172.283227,9896.714274
293.597625,153.140646,95.712904,9896.714274
293.600042,19.142581,153.140646,9839.286531
293.602458,76.570323,229.710970,9820.143950
293.604893,76.570323,229.710970,9762.716208
293.607327,114.855485,172.283227,9762.716208
293.609761,76.570323,133.998066,9858.429112
293.612195,57.427742,133.998066,9954.142016
293.614629,76.570323,210.568389,9858.429112
293.617064,-19.142581,306.281293,9877.571693
293.619498,76.570323,210.568389,9858.429112
293.621932,19.142581,210.568389,9877.571693
293.624366,38.285162,38.285162,9877.571693
293.626801,76.570323,133.998066,9877.571693
293.629235,76.570323,191.425808,9839.286531
293.631669,19.142581,248.853550,9781.858789
293.634103,19.142581,133.998066,9801.001370
293.636538,114.855485,114.855485,9839.286531
293.638972,57.427742,95.712904,9896.714274
293.641406,76.570323,76.570323,9896.714274
293.643840,57.427742,287.138712,9896.714274
293.646275,76.570323,153.140646,9801.001370
293.648709,76.570323,172.283227,9858.429112
293.651143,38.285162,76.570323,9820.143950
293.653577,76.570323,133.998066,9915.856854
293.656012,38.285162,153.140646,9839.286531
293.658446,57.427742,248.853550,9934.999435
293.660880,19.142581,229.710970,9762.716208
293.663314,38.285162,172.283227,9915.856854
293.665749,76.570323,114.855485,9858.429112
293.668183,57.427742,133.998066,9934.999435
293.670617,19.142581,248.853550,9858.429112
293.673051,95.712904,287.138712,9801.001370
293.675485,76.570323,191.425808,9820.143950
293.677920,95.712904,114.855485,9896.714274
293.680354,114.855485,38.285162,9915.856854
293.682788,153.140646,95.712904,9801.001370
293.685222,76.570323,229.710970,9858.429112
293.687657,76.570323,229.710970,9858.429112
293.690091,19.142581,153.140646,9858.429112
293.692525,57.427742,153.140646,9973.284597
293.694959,95.712904,76.570323,9839.286531
293.697394,19.142581,191.425808,9820.143950
293.699828,95.712904,172.283227,9858.429112
293.702273,76.570323,191.425808,9801.001370
293.704720,19.142581,153.140646,9858.429112
293.707167,76.570323,95.712904,9858.429112
293.709614,57.427742,95.712904,9896.714274
293.712061,95.712904,287.138712,9801.001370
293.714508,76.570323,210.568389,9762.716208
293.716955,76.570323,172.283227,9801.001370
293.719402,76.570323,114.855485,9820.143950
293.721849,76.570323,133.998066,9954.142016
293.724296,95.712904,191.425808,9934.999435
293.726743,76.570323,229.710970,9820.143950
293.729190,57.427742,287.138712,9781.858789
293.731637,76.570323,114.855485,9820.143950
293.734085,38.285162,114.855485,9915.856854
293.736532,38.285162,95.712904,9839.286531
293.738979,95.712904,172.283227,9877.571693
293.741426,19.142581,229.710970,9896.714274
293.743873,76.570323,210.568389,9839.286531
293.746320,57.427742,95.712904,9820.143950
293.748767,76.570323,76.570323,9915.856854
293.751214,76.570323,172.283227,9858.429112
293.753661,38.285162,306.281293,9781.858789
293.756108,133.998066,325.423874,9781.858789
293.758555,76.570323,172.283227,9820.143950
293.761002,57.427742,38.285162,9858.429112
293.763449,57.427742,57.427742,9896.714274
293.765896,57.427742,114.855485,9896.714274
293.768343,57.427742,325.423874,9839.286531
293.770790,-38.285162,210.568389,9896.714274
293.773237,114.855485,114.855485,9801.001370
293.775684,133.998066,38.285162,9915.856854
293.778132,38.285162,172.283227,9915.856854
293.780579,76.570323,172.283227,9820.143950
293.783026,95.712904,306.281293,9858.429112
293.785473,76.570323,210.568389,9820.143950
293.787920,-19.142581,153.140646,9839.286531
293.790367,76.570323,114.855485,9877.571693
293.792814,57.427742,133.998066,9934.999435
293.795261,19.142581,153.140646,9801.001370
293.797708,76.570323,210.568389,9839.286531
293.800155,-0.000000,133.998066,9896.714274
293.802602,114.855485,38.285162,9973.284597
293.805049,38.285162,133.998066,9877.571693
293.807496,76.570323,172.283227,9801.001370
293.809943,114.855485,210.568389,9877.571693
293.812390,114.855485,229.710970,9839.286531
293.814837,76.570323,114.855485,9877.571693
293.817284,114.855485,95.712904,9839.286531
293.819747,76.570323,114.855485,9877.571693
293.822209,95.712904,229.710970,9781.858789
293.824672,133.998066,229.710970,9839.286531
293.827134,76.570323,114.855485,9877.571693
293.829597,38.285162,76.570323,9762.716208
293.832059,57.427742,95.712904,9858.429112
293.834522,114.855485,210.568389,9820.143950
293.836984,114.855485,267.996131,9724.431046
293.839447,19.142581,210.568389,9839.286531
293.841909,95.712904,172.283227,9877.571693
293.844372,19.142581,95.712904,9934.999435
293.846834,95.712904,133.998066,9915.856854
293.849297,57.427742,114.855485,9820.143950
293.851759,57.427742,287.138712,9801.001370
293.854222,76.570323,210.568389,9858.429112
293.856684,76.570323,153.140646,9801.001370
293.859147,95.712904,57.427742,9896.714274
293.861609,38.285162,114.855485,9896.714274
293.864072,76.570323,210.568389,9762.716208
293.866534,95.712904,306.281293,9801.001370
293.868997,76.570323,172.283227,9820.143950
293.871459,95.712904,95.712904,9915.856854
293.873921,76.570323,38.285162,9915.856854
293.876384,95.712904,229.710970,9762.716208
293.878846,76.570323,229.710970,9858.429112
293.881309,19.142581,229.710970,9877.571693
293.883771,57.427742,95.712904,9896.714274
293.886234,76.570323,38.285162,9915.856854
293.888696,57.427742,95.712904,9820.143950
293.891159,57.427742,229.710970,9801.001370
293.893621,57.427742,306.281293,9781.858789
293.896084,76.570323,229.710970,9762.716208
293.898552,114.855485,153.140646,9801.001370
293.901019,57.427742,95.712904,9896.714274
293.903487,76.570323,172.283227,9762.716208
293.905955,19.142581,210.568389,9858.429112
293.908423,114.855485,191.425808,9839.286531
293.910890,76.570323,114.855485,9839.286531
293.913358,-57.427742,133.998066,9896.714274
293.915826,76.570323,114.855485,9839.286531
293.918294,76.570323,191.425808,9858.429112
293.920761,114.855485,229.710970,9877.571693
293.923229,57.427742,287.138712,9801.001370
293.925697,19.142581,153.140646,9801.001370
293.928165,95.712904,76.570323,9915.856854
293.930632,38.285162,76.570323,9839.286531
293.933100,19.142581,248.853550,9896.714274
293.935568,95.712904,306.281293,9839.286531
293.938036,95.712904,210.568389,9820.143950
293.940504,114.855485,153.140646,9934.999435
293.942971,57.427742,95.712904,9896.714274
293.945439,133.998066,133.998066,9915.856854
293.947907,76.570323,229.710970,9801.001370
293.950375,114.855485,210.568389,9858.429112
293.952842,19.142581,172.283227,9858.429112
293.955310,57.427742,95.712904,9858.429112
293.957778,95.712904,133.998066,9934.999435
293.960246,19.142581,153.140646,9896.714274
293.962713,76.570323,267.996131,9801.001370
293.965181,19.142581,248.853550,9896.714274
293.967649,57.427742,95.712904,9839.286531
293.970117,76.570323,76.570323,9915.856854
293.972584,76.570323,114.855485,9858.429112
293.975052,114.855485,229.710970,9839.286531
293.977520,57.427742,229.710970,9801.001370
293.979988,-19.142581,153.140646,9724.431046
293.982455,95.712904,76.570323,9896.714274
293.984923,76.570323,76.570323,9973.284597
293.987391,57.427742,57.427742,9839.286531
293.989859,76.570323,229.710970,9839.286531
293.992326,76.570323,229.710970,9820.143950
293.994794,19.142581,191.425808,9781.858789
293.997270,114.855485,76.570323,9915.856854
293.999745,95.712904,95.712904,9839.286531
294.002220,95.712904,229.710970,9762.716208
294.004696,133.998066,267.996131,9781.858789
294.007171,57.427742,287.138712,9839.286531
294.009647,57.427742,95.712904,9896.714274
294.012122,38.285162,76.570323,9839.286531
294.014597,57.427742,95.712904,9839.286531
294.017073,76.570323,229.710970,9858.429112
294.019548,38.285162,267.996131,9877.571693
294.022023,57.427742,248.853550,9934.999435
294.024499,57.427742,57.427742,9896.714274
294.026974,57.427742,57.427742,9896.714274
294.029450,76.570323,172.283227,9801.001370
294.031925,19.142581,267.996131,9801.001370
294.034400,133.998066,210.568389,9781.858789
294.036876,38.285162,153.140646,9839.286531
294.039351,114.855485,76.570323,9915.856854
294.041827,95.712904,114.855485,9858.429112
294.044302,19.142581,191.425808,9896.714274
294.046777,76.570323,210.568389,9820.143950
294.049253,76.570323,172.283227,9762.716208
294.051728,19.142581,133.998066,9801.001370
294.054203,133.998066,38.285162,9839.286531
294.056679,114.855485,114.855485,9896.714274
294.059154,114.855485,229.710970,9820.143950
294.061630,76.570323,229.710970,9839.286531
294.064105,-0.000000,153.140646,9896.714274
294.066580,76.570323,114.855485,9877.571693
294.069056,76.570323,76.570323,9954.142016
294.071531,76.570323,172.283227,9839.286531
294.074007,133.998066,229.710970,9839.286531
294.076482,76.570323,210.568389,9858.429112
294.078957,57.427742,95.712904,9896.714274
294.081433,38.285162,76.570323,9934.999435
294.083908,76.570323,153.140646,9858.429112
294.086383,114.855485,287.138712,9877.571693
294.088859,114.855485,287.138712,9858.429112
294.091334,76.570323,191.425808,9762.716208
294.093810,38.285162,76.570323,9839.286531
294.096291,76.570323,76.570323,9915.856854
294.098773,95.712904,172.283227,9839.286531
294.101255,19.142581,248.853550,9896.714274
294.103737,76.570323,287.138712,9858.429112
294.106219,76.570323,114.855485,9858.429112
294.108701,57.427742,95.712904,9896.714274
294.111182,76.570323,76.570323,9915.856854
294.113664,19.142581,248.853550,9781.858789
294.116146,114.855485,229.710970,9781.858789
294.118628,19.142581,191.425808,9801.001370
294.121110,57.427742,133.998066,9934.999435
294.123592,76.570323,38.285162,9915.856854
294.126073,57.427742,95.712904,9781.858789
294.128555,76.570323,287.138712,9762.716208
294.131037,57.427742,287.138712,9801.001370
294.133519,76.570323,114.855485,9858.429112
294.136001,76.570323,38.285162,9915.856854
294.138482,57.427742,57.427742,9858.429112
294.140964,57.427742,172.283227,9839.286531
294.143446,76.570323,267.996131,9724.431046
294.145928,57.427742,287.138712,9839.286531
294.148410,19.142581,191.425808,9820.143950
294.150892,95.712904,114.855485,9934.999435
294.153373,57.427742,114.855485,9896.714274
294.155855,19.142581,210.568389,9858.429112
294.158337,76.570323,229.710970,9762.716208
294.160819,114.855485,229.710970,9858.429112
294.163301,114.855485,133.998066,9934.999435
294.165783,57.427742,133.998066,9934.999435
294.168264,76.570323,172.283227,9801.001370
294.170746,57.427742,287.138712,9858.429112
294.173228,172.283227,210.568389,9781.858789
294.175710,95.712904,114.855485,9781.858789
294.178192,76.570323,38.285162,9954.142016
294.180673,57.427742,95.712904,9858.429112
294.183155,19.142581,210.568389,9801.001370
294.185637,38.285162,363.709035,9877.571693
294.188119,114.855485,267.996131,9839.286531
294.190601,153.140646,133.998066,9934.999435
294.193083,76.570323,57.427742,9915.856854
294.195512,38.285162,172.283227,9934.999435
294.197941,57.427742,287.138712,9896.714274
294.200370,76.570323,267.996131,9724.431046
294.202800,95.712904,172.283227,9762.716208
294.205229,95.712904,95.712904,9896.714274
294.207658,76.570323,76.570323,9896.714274
294.210087,38.285162,172.283227,9973.284597
294.212517,76.570323,210.568389,9839.286531
294.214946,19.142581,191.425808,9781.858789
294.217375,76.570323,210.568389,9858.429112
294.219805,76.570323,76.570323,9915.856854
294.222234,57.427742,133.998066,9934.999435
294.224663,57.427742,153.140646,9934.999435
294.227092,95.712904,287.138712,9896.714274
294.229522,95.712904,172.283227,9801.001370
294.231951,191.425808,133.998066,9839.286531
294.234380,76.570323,38.285162,9954.142016
294.236809,114.855485,95.712904,9839.286531
294.239239,76.570323,210.568389,9801.001370
294.241668,38.285162,287.138712,9724.431046
294.244097,114.855485,133.998066,9915.856854
294.246526,38.285162,114.855485,9915.856854
294.248956,57.427742,95.712904,9896.714274
294.251385,95.712904,229.710970,9820.143950
294.253814,95.712904,229.710970,9877.571693
294.256244,19.142581,248.853550,9801.001370
294.258673,-0.000000,133.998066,9801.001370
294.261102,57.427742,57.427742,9896.714274
294.263531,76.570323,114.855485,9877.571693
294.265961,76.570323,172.283227,9801.001370
294.268390,57.427742,248.853550,9743.573627
294.270819,76.570323,229.710970,9762.716208
294.273248,191.425808,210.568389,9858.429112
294.275678,114.855485,76.570323,9915.856854
294.278107,19.142581,95.712904,9934.999435
294.280536,76.570323,229.710970,9801.001370
294.282965,38.285162,210.568389,9724.431046
294.285395,19.142581,153.140646,9801.001370
294.287824,38.285162,76.570323,9877.571693
294.290253,19.142581,133.998066,9801.001370
294.292646,114.855485,172.283227,9858.429112
294.295040,191.425808,229.710970,9820.143950
294.297433,19.142581,191.425808,9801.001370
294.299826,-0.000000,133.998066,9896.714274
294.302219,153.140646,133.998066,9954.142016
294.304612,57.427742,95.712904,9820.143950
294.307006,114.855485,229.710970,9762.716208
294.309399,114.855485,344.566454,9724.431046
294.311792,133.998066,172.283227,9839.286531
294.314185,114.855485,114.855485,9858.429112
294.316578,114.855485,38.285162,9896.714274
294.318972,76.570323,153.140646,9858.429112
294.321365,76.570323,229.710970,9762.716208
294.323758,76.570323,210.568389,9801.001370
294.326151,76.570323,172.283227,9820.143950
294.328544,57.427742,133.998066,9934.999435
294.330938,57.427742,153.140646,9934.999435
294.333331,95.712904,210.568389,9858.429112
294.335724,57.427742,287.138712,9839.286531
294.338117,76.570323,210.568389,9858.429112
294.340510,95.712904,95.712904,9839.286531
294.342904,38.285162,57.427742,9877.571693
294.345297,76.570323,76.570323,9915.856854
294.347690,95.712904,229.710970,9762.716208
294.350083,57.427742,306.281293,9801.001370
294.352476,76.570323,267.996131,9724.431046
294.354870,114.855485,95.712904,9839.286531
294.357263,153.140646,95.712904,9896.714274
294.359656,95.712904,133.998066,9934.999435
294.362049,19.142581,248.853550,9820.143950
294.364442,57.427742,229.710970,9801.001370
294.366836,76.570323,153.140646,9858.429112
294.369229,114.855485,19.142581,9915.856854
294.371622,114.855485,76.570323,9973.284597
294.374015,95.712904,210.568389,9877.571693
294.376408,38.285162,267.996131,9762.716208
294.378802,19.142581,153.140646,9820.143950
294.381195,-0.000000,172.283227,9781.858789
294.383588,153.140646,76.570323,9877.571693
294.385981,153.140646,95.712904,9839.286531
294.388405,76.570323,229.710970,9858.429112
294.390829,114.855485,229.710970,9801.001370
294.393253,76.570323,114.855485,9820.143950
294.395677,57.427742,133.998066,9877.571693
294.398101,57.427742,95.712904,9896.714274
294.400524,19.142581,210.568389,9858.429112
294.402948,19.142581,248.853550,9858.429112
294.405372,76.570323,325.423874,9896.714274
294.407796,19.142581,114.855485,9858.429112
294.410220,95.712904,38.285162,9915.856854
294.412644,76.570323,172.283227,9877.571693
294.415068,133.998066,229.710970,9762.716208
294.417492,76.570323,287.138712,9877.571693
294.419915,57.427742,210.568389,9743.573627
294.422339,76.570323,133.998066,9839.286531
294.424763,114.855485,38.285162,9954.142016
294.427187,38.285162,133.998066,9877.571693
294.429611,57.427742,153.140646,9934.999435
294.432035,57.427742,287.138712,9801.001370
294.434459,76.570323,210.568389,9820.143950
294.436882,19.142581,114.855485,9877.571693
294.439306,95.712904,114.855485,9839.286531
294.441730,76.570323,153.140646,9839.286531
294.444154,95.712904,306.281293,9839.286531
294.446578,76.570323,210.568389,9820.143950
294.449002,76.570323,114.855485,9820.143950
294.451426,57.427742,95.712904,9896.714274
294.453850,95.712904,210.568389,9858.429112
294.456273,38.285162,267.996131,9858.429112
294.458697,38.285162,248.853550,9762.716208
294.461121,76.570323,153.140646,9839.286531
294.463545,95.712904,38.285162,9915.856854
294.465969,57.427742,95.712904,9896.714274
294.468393,19.142581,210.568389,9839.286531
294.470817,57.427742,287.138712,9896.714274
294.473241,76.570323,267.996131,9781.858789
294.475664,76.570323,114.855485,9820.143950
294.478088,57.427742,133.998066,9934.999435
294.480512,57.427742,95.712904,9839.286531
294.482936,76.570323,210.568389,9858.429112
294.485385,114.855485,210.568389,9839.286531
294.487833,76.570323,191.425808,9858.429112
294.490282,76.570323,114.855485,9820.143950
294.492731,76.570323,114.855485,9877.571693
294.495179,95.712904,172.283227,9877.571693
294.497628,191.425808,229.710970,9820.143950
294.500076,57.427742,287.138712,9781.858789
294.502525,57.427742,191.425808,9743.573627
294.504974,114.855485,76.570323,9915.856854
294.507422,19.142581,133.998066,9896.714274
294.509871,19.142581,172.283227,9896.714274
294.512320,19.142581,172.283227,9839.286531
294.514768,57.427742,133.998066,9934.999435
294.517217,38.285162,287.138712,9915.856854
294.519665,114.855485,287.138712,9858.429112
294.522114,95.712904,229.710970,9762.716208
294.524563,38.285162,76.570323,9801.001370
294.527011,57.427742,95.712904,9896.714274
294.529460,95.712904,-38.285162,9877.571693
294.531909,153.140646,57.427742,9858.429112
294.534357,114.855485,287.138712,9877.571693
294.536806,95.712904,440.279358,9762.716208
294.539254,57.427742,344.566454,9801.001370
294.541703,38.285162,38.285162,9915.856854
294.544152,57.427742,57.427742,9858.429112
294.546600,76.570323,76.570323,9915.856854
294.549049,95.712904,210.568389,9877.571693
294.551498,57.427742,287.138712,9858.429112
294.553946,19.142581,191.425808,9839.286531
294.556395,57.427742,114.855485,9839.286531
294.558843,114.855485,57.427742,9915.856854
294.561292,153.140646,95.712904,9839.286531
294.563741,76.570323,210.568389,9858.429112
294.566189,114.855485,153.140646,9820.143950
294.568638,114.855485,210.568389,9762.716208
294.571087,38.285162,57.427742,9896.714274
294.573535,95.712904,95.712904,9839.286531
294.575984,95.712904,248.853550,9858.429112
294.578432,38.285162,325.423874,9762.716208
294.580881,76.570323,210.568389,9820.143950
294.583349,38.285162,19.142581,9877.571693
294.585817,57.427742,57.427742,9801.001370
294.588286,76.570323,114.855485,9877.571693
294.590754,19.142581,248.853550,9896.714274
294.593222,57.427742,287.138712,9839.286531
294.595690,114.855485,248.853550,9934.999435
294.598158,38.285162,114.855485,9915.856854
294.600626,57.427742,95.712904,9896.714274
294.603094,76.570323,114.855485,9934.999435
294.605563,114.855485,229.710970,9858.429112
294.608031,95.712904,287.138712,9801.001370
294.610499,38.285162,248.853550,9762.716208
294.612967,57.427742,114.855485,9858.429112
294.615435,19.142581,114.855485,9934.999435
294.617903,76.570323,114.855485,9801.001370
294.620372,38.285162,229.710970,9839.286531
294.622840,76.570323,287.138712,9839.286531
294.625308,76.570323,210.568389,9858.429112
294.627776,38.285162,114.855485,9896.714274
294.630244,19.142581,153.140646,9896.714274
294.632712,133.998066,210.568389,9839.286531
294.635180,38.285162,325.423874,9820.143950
294.637649,114.855485,191.425808,9820.143950
294.640117,38.285162,76.570323,9839.286531
294.642585,38.285162,95.712904,9820.143950
294.645053,76.570323,191.425808,9877.571693
294.647521,153.140646,248.853550,9934.999435
294.649989,57.427742,229.710970,9839.286531
294.652457,76.570323,210.568389,9858.429112
294.654926,76.570323,38.285162,9954.142016
294.657394,57.427742,57.427742,9839.286531
294.659862,133.998066,210.568389,9877.571693
294.662330,114.855485,287.138712,9801.001370
294.664798,133.998066,287.138712,9762.716208
294.667266,76.570323,114.855485,9858.429112
294.669735,38.285162,76.570323,9877.571693
294.672203,76.570323,95.712904,9915.856854
294.674671,76.570323,229.710970,9820.143950
294.677139,19.142581,267.996131,9781.858789
294.679607,76.570323,172.283227,9839.286531
294.682095,114.855485,153.140646,9858.429112
294.684579,57.427742,57.427742,9858.429112
294.687062,57.427742,191.425808,9934.999435
294.689546,57.427742,287.138712,9896.714274
294.692030,76.570323,172.283227,9762.716208
294.694513,76.570323,172.283227,9839.286531
294.696997,76.570323,38.285162,9973.284597
294.699481,114.855485,76.570323,9896.714274
294.701964,76.570323,229.710970,9858.429112
294.704448,19.142581,248.853550,9839.286531
294.706932,38.285162,267.996131,9877.571693
294.709415,38.285162,76.570323,9877.571693
294.711899,38.285162,57.427742,9877.571693
294.714383,95.712904,0.000000,9896.714274
294.716866,191.425808,229.710970,9858.429112
294.719350,76.570323,248.853550,9724.431046
294.721834,19.142581,191.425808,9801.001370
294.724317,38.285162,95.712904,9858.429112
294.726801,19.142581,-57.427742,9896.714274
294.729285,95.712904,95.712904,9839.286531
294.731768,76.570323,229.710970,9858.429112
294.734252,76.570323,287.138712,9762.716208
294.736736,76.570323,229.710970,9820.143950
294.739219,38.285162,38.285162,9858.429112
294.741703,19.142581,57.427742,9877.571693
294.744187,57.427742,95.712904,9858.429112
294.746670,38.285162,306.281293,9858.429112
294.749154,57.427742,229.710970,9839.286531
294.751638,19.142581,191.425808,9858.429112
294.754121,76.570323,57.427742,9915.856854
294.756605,76.570323,76.570323,9915.856854
294.759089,38.285162,267.996131,9877.571693
294.761572,38.285162,267.996131,9858.429112
294.764056,38.285162,287.138712,9858.429112
294.766540,95.712904,114.855485,9839.286531
294.769023,76.570323,38.285162,9915.856854
294.771507,38.285162,114.855485,9896.714274
294.773991,76.570323,210.568389,9762.716208
294.776474,38.285162,325.423874,9858.429112
294.778958,-38.285162,76.570323,9877.571693
294.781454,-0.000000,95.712904,9934.999435
294.783949,57.427742,95.712904,9896.714274
294.786445,76.570323,172.283227,9762.716208
294.788940,38.285162,325.423874,9762.716208
294.791436,133.998066,210.568389,9801.001370
294.793931,76.570323,114.855485,9762.716208
294.796426,19.142581,95.712904,9934.999435
294.798922,76.570323,172.283227,9858.429112
294.801417,76.570323,229.710970,9839.286531
294.803913,38.285162,191.425808,9762.716208
294.806408,-0.000000,133.998066,9896.714274
294.808904,19.142581,57.427742,9954.142016
294.811399,95.712904,95.712904,9896.714274
294.813895,38.285162,172.283227,9915.856854
294.816390,57.427742,306.281293,9820.143950
294.818886,38.285162,325.423874,9877.571693
294.821381,38.285162,287.138712,9801.001370
294.823877,57.427742,95.712904,9839.286531
294.826372,57.427742,133.998066,9973.284597
294.828868,57.427742,325.423874,9858.429112
294.831363,57.427742,248.853550,9743.573627
294.833859,57.427742,306.281293,9781.858789
294.836354,114.855485,95.712904,9896.714274
294.838850,76.570323,19.142581,9915.856854
294.841345,38.285162,114.855485,9896.714274
294.843841,76.570323,287.138712,9820.143950
294.846336,57.427742,306.281293,9724.431046
294.848832,76.570323,248.853550,9801.001370
294.851327,38.285162,19.142581,9877.571693
294.853823,19.142581,57.427742,9877.571693
294.856318,19.142581,191.425808,9896.714274
294.858814,133.998066,229.710970,9801.001370
294.861309,57.427742,287.138712,9801.001370
294.863805,19.142581,114.855485,9858.429112
294.866300,-19.142581,38.285162,9858.429112
294.868796,38.285162,133.998066,9934.999435
294.871291,76.570323,229.710970,9858.429112
294.873787,114.855485,306.281293,9896.714274
294.876282,57.427742,229.710970,9667.003304
294.878778,76.570323,114.855485,9877.571693
294.881283,95.712904,-57.427742,9934.999435
294.883788,57.427742,95.712904,9896.714274
294.886293,76.570323,287.138712,9820.143950
294.888798,114.855485,306.281293,9801.001370
294.891303,19.142581,267.996131,9858.429112
294.893808,-0.000000,133.998066,9896.714274
294.896314,57.427742,19.142581,9934.999435
294.898819,114.855485,114.855485,9858.429112
294.901324,114.855485,210.568389,9762.716208
294.903829,57.427742,287.138712,9781.858789
294.906334,76.570323,172.283227,9762.716208
294.908839,57.427742,95.712904,9896.714274
294.911344,153.140646,95.712904,9839.286531
294.913849,191.425808,153.140646,9896.714274
294.916354,38.285162,325.423874,9762.716208
294.918860,76.570323,191.425808,9801.001370
294.921365,133.998066,172.283227,9839.286531
294.923870,76.570323,76.570323,10011.569758
294.926375,114.855485,95.712904,9896.714274
294.928880,38.285162,267.996131,9839.286531
294.931385,57.427742,287.138712,9820.143950
294.933890,38.285162,114.855485,9724.431046
294.936395,38.285162,38.285162,9877.571693
294.938901,57.427742,57.427742,9839.286531
294.941406,38.285162,133.998066,9839.286531
294.943911,57.427742,287.138712,9781.858789
294.946416,57.427742,229.710970,9801.001370
294.948921,38.285162,133.998066,9839.286531
294.951426,57.427742,19.142581,9934.999435
294.953931,191.425808,95.712904,9877.571693
294.956436,76.570323,210.568389,9820.143950
294.958942,76.570323,267.996131,9781.858789
294.961447,57.427742,287.138712,9858.429112
294.963952,114.855485,153.140646,9877.571693
294.966457,95.712904,57.427742,9896.714274
294.968962,76.570323,172.283227,9877.571693
294.971467,19.142581,248.853550,9896.714274
294.973972,76.570323,210.568389,9858.429112
294.976477,76.570323,172.283227,9820.143950
294.978983,76.570323,114.855485,9877.571693
294.981495,76.570323,76.570323,9896.714274
294.984008,57.427742,248.853550,9877.571693
294.986521,57.427742,229.710970,9896.714274
294.989034,76.570323,210.568389,9762.716208
294.991547,38.285162,76.570323,9858.429112
294.994060,57.427742,95.712904,9801.001370
294.996573,95.712904,172.283227,9820.143950
294.999085,57.427742,325.423874,9839.286531
295.001598,38.285162,325.423874,9762.716208
295.004111,19.142581,191.425808,9781.858789
295.006624,38.285162,76.570323,9877.571693
295.009137,19.142581,-38.285162,9896.714274
295.011650,114.855485,172.283227,9858.429112
295.014163,38.285162,325.423874,9762.716208
295.016676,153.140646,363.709035,9781.858789
295.019188,76.570323,114.855485,9762.716208
295.021701,57.427742,95.712904,9896.714274
295.024214,57.427742,57.427742,9896.714274
295.026727,19.142581,114.855485,9877.571693
295.029240,95.712904,229.710970,9820.143950
295.031753,38.285162,267.996131,9801.001370
295.034266,76.570323,172.283227,9858.429112
295.036778,95.712904,95.712904,9896.714274
295.039291,76.570323,229.710970,9839.286531
295.041804,38.285162,325.423874,9762.716208
295.044317,95.712904,344.566454,9820.143950
295.046830,19.142581,191.425808,9781.858789
295.049343,57.427742,57.427742,9858.429112
295.051856,114.855485,38.285162,9896.714274
295.054369,95.712904,172.283227,9820.143950
295.056881,57.427742,287.138712,9820.143950
295.059394,133.998066,229.710970,9820.143950
295.061907,-0.000000,153.140646,9820.143950
295.064420,76.570323,76.570323,9915.856854
295.066933,76.570323,76.570323,9915.856854
295.069446,57.427742,287.138712,9839.286531
295.071959,76.570323,287.138712,9762.716208
295.074472,57.427742,248.853550,9743.573627
295.076984,57.427742,95.712904,9839.286531
295.079497,57.427742,95.712904,9858.429112
295.082016,95.712904,133.998066,9934.999435
295.084535,76.570323,172.283227,9858.429112
295.087054,57.427742,287.138712,9896.714274
295.089572,114.855485,248.853550,9934.999435
295.092091,38.285162,-38.285162,9858.429112
295.094610,57.427742,95.712904,9896.714274
295.097129,153.140646,248.853550,9858.429112
295.099647,57.427742,287.138712,9781.858789
295.102166,76.570323,172.283227,9877.571693
295.104685,19.142581,191.425808,9858.429112
295.107204,57.427742,95.712904,9801.001370
295.109722,57.427742,95.712904,9801.001370
295.112241,95.712904,172.283227,9877.571693
295.114760,76.570323,229.710970,9801.001370
295.117279,76.570323,210.568389,9839.286531
295.119798,76.570323,76.570323,9915.856854
295.122316,19.142581,95.712904,9877.571693
295.124835,76.570323,114.855485,9877.571693
295.127354,38.285162,191.425808,9896.714274
295.129873,38.285162,248.853550,9762.716208
295.132391,76.570323,114.855485,9762.716208
295.134910,114.855485,133.998066,9877.571693
295.137429,133.998066,76.570323,9896.714274
295.139948,76.570323,210.568389,9858.429112
295.142466,19.142581,191.425808,9858.429112
295.144985,-19.142581,325.423874,9858.429112
295.147504,76.570323,114.855485,9858.429112
295.150023,76.570323,76.570323,9896.714274
295.152541,38.285162,76.570323,9877.571693
295.155060,76.570323,210.568389,9877.571693
295.157579,19.142581,248.853550,9839.286531
295.160098,114.855485,210.568389,9762.716208
295.162617,114.855485,95.712904,9896.714274
295.165135,114.855485,95.712904,9858.429112
295.167654,76.570323,153.140646,9877.571693
295.170173,133.998066,229.710970,9820.143950
295.172692,95.712904,229.710970,9839.286531
295.175210,76.570323,114.855485,9858.429112
295.177729,57.427742,-19.142581,9801.001370
295.180248,57.427742,95.712904,9858.429112
295.182771,57.427742,229.710970,9858.429112
295.185295,76.570323,229.710970,9762.716208
295.187819,57.427742,344.566454,9801.001370
295.190342,153.140646,76.570323,9877.571693
295.192866,95.712904,57.427742,9858.429112
295.195390,57.427742,114.855485,9896.714274
295.197913,76.570323,210.568389,9877.571693
295.200437,114.855485,210.568389,9858.429112
295.202960,38.285162,267.996131,9858.429112
295.205484,57.427742,133.998066,9934.999435
295.208008,38.285162,114.855485,9839.286531
295.210531,-0.000000,210.568389,9858.429112
295.213055,19.142581,267.996131,9801.001370
295.215579,38.285162,325.423874,9858.429112
295.218102,76.570323,172.283227,9762.716208
295.220626,114.855485,114.855485,9858.429112
295.223149,19.142581,153.140646,9896.714274
295.225673,57.427742,229.710970,9896.714274
295.228197,-38.285162,267.996131,9877.571693
295.230720,38.285162,287.138712,9839.286531
295.233244,38.285162,76.570323,9839.286531
295.235767,57.427742,57.427742,9896.714274
295.238291,133.998066,172.283227,9877.571693
295.240815,95.712904,287.138712,9858.429112
295.243338,76.570323,210.568389,9820.143950
295.245862,19.142581,191.425808,9781.858789
295.248386,57.427742,95.712904,9896.714274
295.250909,19.142581,95.712904,9858.429112
295.253433,76.570323,229.710970,9858.429112
295.255956,114.855485,248.853550,9781.858789
295.258480,76.570323,210.568389,9820.143950
295.261004,76.570323,133.998066,9915.856854
295.263527,57.427742,95.712904,9896.714274
295.266051,76.570323,210.568389,9877.571693
295.268574,57.427742,267.996131,9934.999435
295.271098,19.142581,248.853550,9801.001370
295.273622,19.142581,153.140646,9896.714274
295.276145,76.570323,114.855485,9839.286531
295.278669,153.140646,57.427742,9801.001370
295.281193,95.712904,210.568389,9877.571693
295.283720,133.998066,210.568389,9858.429112
295.286247,57.427742,306.281293,9801.001370
295.288774,57.427742,133.998066,9934.999435
295.291302,114.855485,19.142581,9915.856854
295.293829,19.142581,114.855485,9934.999435
295.296356,38.285162,248.853550,9858.429112
295.298883,114.855485,191.425808,9839.286531
295.301411,19.142581,153.140646,9801.001370
295.303938,57.427742,38.285162,9801.001370
295.306465,76.570323,114.855485,9820.143950
295.308992,57.427742,153.140646,9934.999435
295.311520,38.285162,287.138712,9839.286531
295.314047,153.140646,210.568389,9858.429112
295.316574,-19.142581,153.140646,9801.001370
295.319102,38.285162,38.285162,9839.286531
295.321629,57.427742,95.712904,9839.286531
295.324156,76.570323,210.568389,9877.571693
295.326683,95.712904,287.138712,9839.286531
295.329211,57.427742,229.710970,9839.286531
295.331738,19.142581,133.998066,9781.858789
295.334265,57.427742,38.285162,9839.286531
295.336792,57.427742,133.998066,9934.999435
295.339320,114.855485,210.568389,9858.429112
295.341847,76.570323,229.710970,9762.716208
295.344374,153.140646,229.710970,9820.143950
295.346901,57.427742,95.712904,9896.714274
295.349429,19.142581,19.142581,9915.856854
295.351956,57.427742,133.998066,9877.571693
295.354483,76.570323,229.710970,9877.571693
295.357010,76.570323,229.710970,9820.143950
295.359538,-0.000000,191.425808,9839.286531
295.362065,76.570323,38.285162,9839.286531
295.364592,-0.000000,38.285162,9877.571693
295.367120,76.570323,229.710970,9820.143950
295.369647,38.285162,325.423874,9762.716208
295.372174,95.712904,287.138712,9896.714274
295.374701,76.570323,172.283227,9877.571693
295.377229,38.285162,19.142581,9858.429112
295.379756,133.998066,172.283227,9877.571693
295.382283,76.570323,287.138712,9820.143950
295.384813,19.142581,248.853550,9858.429112
295.387343,57.427742,287.138712,9896.714274
295.389873,76.570323,114.855485,9877.571693
295.392403,38.285162,76.570323,9877.571693
295.394933,19.142581,210.568389,9781.858789
295.397463,76.570323,229.710970,9820.143950
295.399993,95.712904,287.138712,9877.571693
295.402523,114.855485,153.140646,9858.429112
295.405053,76.570323,114.855485,9839.286531
295.407583,57.427742,133.998066,9934.999435
295.410113,19.142581,153.140646,9839.286531
295.412643,76.570323,210.568389,9762.716208
295.415173,114.855485,210.568389,9820.143950
295.417703,114.855485,114.855485,9839.286531
295.420233,153.140646,95.712904,9896.714274
295.422763,38.285162,172.283227,9896.714274
295.425293,19.142581,191.425808,9801.001370
295.427823,57.427742,306.281293,9896.714274
295.430353,95.712904,172.283227,9858.429112
295.432883,57.427742,95.712904,9896.714274
295.435413,57.427742,95.712904,9801.001370
295.437943,133.998066,229.710970,9877.571693
295.440473,76.570323,248.853550,9858.429112
295.443003,95.712904,287.138712,9801.001370
295.445533,76.570323,114.855485,9858.429112
295.448063,114.855485,0.000000,9801.001370
295.450593,172.283227,133.998066,9934.999435
295.453123,19.142581,210.568389,9781.858789
295.455653,57.427742,306.281293,9858.429112
295.458183,57.427742,172.283227,9858.429112
295.460713,19.142581,133.998066,9839.286531
295.463243,38.285162,95.712904,9896.714274
295.465773,76.570323,172.283227,9801.001370
295.468303,19.142581,191.425808,9820.143950
295.470833,76.570323,229.710970,9801.001370
295.473363,114.855485,210.568389,9820.143950
295.475893,57.427742,76.570323,9801.001370
295.478423,57.427742,57.427742,9915.856854
295.480953,76.570323,153.140646,9858.429112
295.483483,19.142581,153.140646,9858.429112
295.485973,19.142581,191.425808,9801.001370
295.488463,133.998066,172.283227,9858.429112
295.490953,114.855485,38.285162,9896.714274
295.493443,133.998066,95.712904,9896.714274
295.495933,57.427742,114.855485,9781.858789
295.498423,19.142581,172.283227,9801.001370
295.500913,76.570323,172.283227,9839.286531
295.503403,76.570323,114.855485,9877.571693
295.505893,76.570323,114.855485,9820.143950
295.508383,76.570323,114.855485,9858.429112
295.510873,19.142581,210.568389,9858.429112
295.513363,57.427742,248.853550,9934.999435
295.515853,-19.142581,191.425808,9896.714274
295.518343,38.285162,76.570323,9801.001370
295.520833,114.855485,57.427742,9801.001370
295.523323,38.285162,114.855485,9915.856854
295.525813,76.570323,210.568389,9877.571693
295.528303,57.427742,229.710970,9820.143950
295.530793,95.712904,191.425808,9839.286531
295.533283,76.570323,172.283227,9801.001370
295.535773,76.570323,38.285162,9915.856854
295.538263,57.427742,114.855485,9896.714274
295.540753,114.855485,114.855485,9762.716208
295.543243,38.285162,229.710970,9839.286531
295.545733,-19.142581,153.140646,9839.286531
295.548223,95.712904,172.283227,9839.286531
295.550713,114.855485,210.568389,9858.429112
295.553203,95.712904,229.710970,9877.571693
295.555693,76.570323,229.710970,9820.143950
295.558183,-19.142581,172.283227,9839.286531
295.560673,95.712904,57.427742,9801.001370
295.563163,95.712904,172.283227,9858.429112
295.565653,114.855485,229.710970,9877.571693
295.568143,76.570323,229.710970,9762.716208
295.570633,114.855485,229.710970,9820.143950
295.573124,95.712904,153.140646,9877.571693
295.575614,114.855485,133.998066,9934.999435
295.578104,114.855485,114.855485,9820.143950
295.580594,19.142581,248.853550,9896.714274
295.583084,76.570323,210.568389,9820.143950
295.585544,76.570323,153.140646,9820.143950
295.588004,57.427742,114.855485,9858.429112
295.590464,19.142581,191.425808,9801.001370
295.592924,76.570323,172.283227,9877.571693
295.595384,95.712904,191.425808,9839.286531
295.597844,76.570323,172.283227,9762.716208
295.600304,133.998066,172.283227,9762.716208
295.602765,57.427742,95.712904,9858.429112
295.605225,57.427742,133.998066,9934.999435
295.607685,-38.285162,172.283227,9915.856854
295.610145,76.570323,210.568389,9820.143950
295.612605,114.855485,287.138712,9762.716208
295.615065,76.570323,114.855485,9820.143950
295.617525,153.140646,95.712904,9896.714274
295.619985,76.570323,114.855485,9839.286531
295.622446,76.570323,287.138712,9820.143950
295.624906,95.712904,191.425808,9820.143950
295.627366,76.570323,210.568389,9839.286531
295.629826,57.427742,153.140646,9934.999435
295.632286,76.570323,76.570323,9896.714274
295.634746,95.712904,191.425808,9877.571693
295.637206,76.570323,229.710970,9762.716208
295.639666,153.140646,210.568389,9801.001370
295.642127,76.570323,153.140646,9762.716208
295.644587,38.285162,38.285162,9801.001370
295.647047,153.140646,114.855485,9896.714274
295.649507,57.427742,287.138712,9858.429112
295.651967,95.712904,306.281293,9896.714274
295.654427,95.712904,287.138712,9801.001370
295.656887,19.142581,114.855485,9820.143950
295.659347,114.855485,76.570323,9915.856854
295.661808,133.998066,153.140646,9781.858789
295.664268,19.142581,153.140646,9839.286531
295.666728,133.998066,229.710970,9858.429112
295.669188,95.712904,172.283227,9820.143950
295.671648,57.427742,95.712904,9858.429112
295.674108,38.285162,76.570323,9858.429112
295.676568,114.855485,172.283227,9877.571693
295.679029,57.427742,229.710970,9801.001370
295.681489,114.855485,191.425808,9820.143950
295.683972,57.427742,114.855485,9896.714274
295.686452,95.712904,95.712904,9801.001370
295.688931,95.712904,153.140646,9858.429112
295.691410,76.570323,210.568389,9858.429112
295.693890,76.570323,229.710970,9858.429112
295.696369,19.142581,229.710970,9820.143950
295.698848,57.427742,114.855485,9896.714274
295.701328,114.855485,95.712904,9896.714274
295.703807,76.570323,114.855485,9877.571693
295.706287,57.427742,229.710970,9896.714274
295.708766,57.427742,287.138712,9781.858789
295.711245,114.855485,172.283227,9839.286531
295.713725,95.712904,76.570323,9954.142016
295.716204,191.425808,210.568389,9896.714274
295.718683,38.285162,267.996131,9820.143950
295.721163,57.427742,248.853550,9877.571693
295.723642,76.570323,210.568389,9801.001370
295.726121,19.142581,153.140646,9801.001370
295.728601,95.712904,153.140646,9877.571693
295.731080,95.712904,95.712904,9801.001370
295.733559,-0.000000,191.425808,9896.714274
295.736039,38.285162,229.710970,9915.856854
295.738518,-19.142581,153.140646,9801.001370
295.740997,-19.142581,76.570323,9820.143950
295.743477,57.427742,153.140646,9934.999435
295.745956,76.570323,229.710970,9858.429112
295.748435,76.570323,229.710970,9820.143950
295.750915,153.140646,210.568389,9839.286531
295.753394,38.285162,76.570323,9858.429112
295.755873,38.285162,133.998066,9762.716208
295.758353,191.425808,133.998066,9896.714274
295.760832,76.570323,210.568389,9820.143950
295.763311,95.712904,229.710970,9896.714274
295.765791,76.570323,191.425808,9877.571693
295.768270,-19.142581,133.998066,9839.286531
295.770749,57.427742,114.855485,9801.001370
295.773229,114.855485,191.425808,9877.571693
295.775708,133.998066,210.568389,9820.143950
295.778187,76.570323,210.568389,9877.571693
295.780667,19.142581,153.140646,9858.429112
295.783161,57.427742,153.140646,9934.999435
295.785656,57.427742,114.855485,9801.001370
295.788151,114.855485,210.568389,9877.571693
295.790645,114.855485,210.568389,9839.286531
295.793140,114.855485,210.568389,9801.001370
295.795634,57.427742,95.712904,9839.286531
295.798129,95.712904,133.998066,9934.999435
295.800623,76.570323,210.568389,9839.286531
295.803118,76.570323,172.283227,9820.143950
295.805613,19.142581,210.568389,9781.858789
295.808107,76.570323,210.568389,9762.716208
295.810602,114.855485,38.285162,9896.714274
295.813096,57.427742,114.855485,9896.714274
295.815591,76.570323,172.283227,9762.716208
295.818086,76.570323,248.853550,9781.858789
295.820580,38.285162,210.568389,9915.856854
295.823075,76.570323,172.283227,9858.429112
295.825569,76.570323,76.570323,9915.856854
295.828064,133.998066,133.998066,9954.142016
295.830559,-0.000000,191.425808,9839.286531
295.833053,95.712904,229.710970,9839.286531
295.835548,57.427742,95.712904,9801.001370
295.838042,76.570323,114.855485,9820.143950
295.840537,76.570323,153.140646,9839.286531
295.843032,19.142581,153.140646,9858.429112
295.845526,19.142581,153.140646,9781.858789
295.848021,57.427742,248.853550,9934.999435
295.850515,76.570323,114.855485,9762.716208
295.853010,57.427742,114.855485,9839.286531
295.855505,133.998066,133.998066,9934.999435
295.857999,76.570323,172.283227,9801.001370
295.860494,38.285162,248.853550,9762.716208
295.862988,133.998066,210.568389,9877.571693
295.865483,76.570323,172.283227,9820.143950
295.867978,57.427742,95.712904,9801.001370
295.870472,57.427742,133.998066,9877.571693
295.872967,76.570323,133.998066,9915.856854
295.875461,38.285162,210.568389,9915.856854
295.877956,76.570323,114.855485,9839.286531
295.880451,57.427742,95.712904,9896.714274
295.882957,76.570323,133.998066,9858.429112
295.885464,-0.000000,191.425808,9839.286531
295.887971,76.570323,210.568389,9858.429112
295.890478,76.570323,114.855485,9801.001370
295.892985,95.712904,153.140646,9762.716208
295.895492,57.427742,95.712904,9858.429112
295.897998,57.427742,95.712904,9820.143950
295.900505,76.570323,287.138712,9820.143950
295.903012,57.427742,287.138712,9858.429112
295.905519,95.712904,229.710970,9820.143950
295.908026,76.570323,172.283227,9839.286531
295.910533,38.285162,76.570323,9839.286531
295.913039,19.142581,114.855485,9858.429112
295.915546,76.570323,287.138712,9820.143950
295.918053,95.712904,287.138712,9858.429112
295.920560,19.142581,133.998066,9896.714274
295.923067,19.142581,210.568389,9896.714274
295.925574,95.712904,133.998066,9992.427178
295.928080,76.570323,153.140646,9820.143950
295.930587,76.570323,248.853550,9896.714274
295.933094,57.427742,191.425808,9934.999435
295.935601,114.855485,153.140646,9858.429112
295.938108,19.142581,133.998066,9781.858789
295.940614,95.712904,153.140646,9877.571693
295.943121,-0.000000,191.425808,9839.286531
295.945628,76.570323,191.425808,9820.143950
295.948135,76.570323,210.568389,9839.286531
295.950642,76.570323,210.568389,9820.143950
295.953149,76.570323,172.283227,9762.716208
295.955655,133.998066,153.140646,9877.571693
295.958162,19.142581,191.425808,9839.286531
295.960669,38.285162,248.853550,9820.143950
295.963176,57.427742,191.425808,9934.999435
295.965683,-57.427742,133.998066,9820.143950
295.968190,76.570323,114.855485,9839.286531
295.970696,133.998066,287.138712,9839.286531
295.973203,76.570323,229.710970,9839.286531
295.975710,57.427742,248.853550,9743.573627
295.978217,114.855485,172.283227,9820.143950
295.980724,76.570323,172.283227,9820.143950
295.983240,153.140646,133.998066,9877.571693
295.985757,57.427742,191.425808,9934.999435
295.988273,76.570323,210.568389,9858.429112
295.990789,76.570323,210.568389,9820.143950
295.993306,76.570323,114.855485,9839.286531
295.995822,76.570323,172.283227,9820.143950
295.998339,133.998066,191.425808,9820.143950
296.000855,57.427742,287.138712,9896.714274
296.003372,38.285162,267.996131,9877.571693
296.005888,-19.142581,133.998066,9896.714274
296.008404,76.570323,38.285162,9915.856854
296.010921,57.427742,38.285162,9858.429112
296.013437,76.570323,229.710970,9762.716208
296.015954,95.712904,248.853550,9724.431046
296.018470,133.998066,229.710970,9820.143950
296.020986,95.712904,114.855485,9801.001370
296.023503,76.570323,114.855485,9839.286531
296.026019,76.570323,114.855485,9858.429112
296.028536,76.570323,210.568389,9762.716208
296.031052,76.570323,172.283227,9877.571693
296.033569,19.142581,191.425808,9801.001370
296.036085,57.427742,114.855485,9801.001370
296.038601,76.570323,114.855485,9877.571693
296.041118,-0.000000,153.140646,9858.429112
296.043634,-0.000000,191.425808,9801.001370
296.046151,133.998066,114.855485,9877.571693
296.048667,57.427742,153.140646,9934.999435
296.051183,57.427742,95.712904,9781.858789
296.053700,57.427742,153.140646,9934.999435
296.056216,133.998066,287.138712,9839.286531
296.058733,57.427742,248.853550,9762.716208
296.061249,57.427742,153.140646,9934.999435
296.063766,57.427742,95.712904,9896.714274
296.066282,19.142581,95.712904,9877.571693
296.068798,19.142581,133.998066,9820.143950
296.071315,19.142581,191.425808,9801.001370
296.073831,19.142581,229.710970,9743.573627
296.076348,57.427742,172.283227,9934.999435
296.078864,76.570323,76.570323,9915.856854
296.081380,57.427742,95.712904,9896.714274
296.083866,76.570323,191.425808,9858.429112
296.086352,76.570323,229.710970,9762.716208
296.088838,19.142581,191.425808,9820.143950
296.091323,114.855485,114.855485,9820.143950
296.093809,153.140646,57.427742,9801.001370
296.096295,57.427742,172.283227,9877.571693
296.098781,57.427742,287.138712,9801.001370
296.101267,95.712904,287.138712,9762.716208
296.103752,76.570323,153.140646,9877.571693
296.106238,38.285162,76.570323,9877.571693
296.108724,76.570323,76.570323,9915.856854
296.111210,57.427742,229.710970,9839.286531
296.113695,114.855485,229.710970,9801.001370
296.116181,57.427742,287.138712,9781.858789
296.118667,19.142581,153.140646,9801.001370
296.121153,38.285162,133.998066,9858.429112
296.123638,57.427742,95.712904,9820.143950
296.126124,19.142581,248.853550,9858.429112
296.128610,114.855485,287.138712,9839.286531
296.131096,19.142581,248.853550,9801.001370
296.133581,76.570323,172.283227,9820.143950
296.136067,95.712904,95.712904,9896.714274
296.138553,114.855485,114.855485,9877.571693
296.141039,76.570323,210.568389,9858.429112
296.143525,57.427742,210.568389,9839.286531
296.146010,19.142581,191.425808,9801.001370
296.148496,57.427742,95.712904,9781.858789
296.150982,95.712904,95.712904,9858.429112
296.153468,76.570323,229.710970,9858.429112
296.155953,95.712904,229.710970,9820.143950
296.158439,172.283227,229.710970,9801.001370
296.160925,19.142581,191.425808,9858.429112
296.163411,57.427742,153.140646,9934.999435
296.165896,95.712904,191.425808,9877.571693
296.168382,76.570323,114.855485,9839.286531
296.170868,57.427742,325.423874,9781.858789
296.173354,114.855485,172.283227,9839.286531
296.175839,19.142581,133.998066,9858.429112
296.178325,19.142581,133.998066,9896.714274
296.180811,57.427742,114.855485,9801.001370
296.183312,57.427742,287.138712,9781.858789
296.185813,76.570323,229.710970,9820.143950
296.188314,19.142581,153.140646,9858.429112
296.190815,57.427742,95.712904,9839.286531
296.193316,38.285162,153.140646,9915.856854
296.195817,76.570323,210.568389,9858.429112
296.198318,76.570323,172.283227,9801.001370
296.200819,114.855485,210.568389,9877.571693
296.203320,76.570323,114.855485,9820.143950
296.205821,76.570323,76.570323,9915.856854
296.208322,76.570323,133.998066,9915.856854
296.210823,19.142581,153.140646,9896.714274
296.213324,95.712904,210.568389,9801.001370
296.215825,57.427742,229.710970,9896.714274
296.218326,57.427742,114.855485,9839.286531
296.220827,76.570323,114.855485,9877.571693
296.223328,153.140646,172.283227,9915.856854
296.225829,38.285162,248.853550,9801.001370
296.228330,57.427742,191.425808,9762.716208
296.230831,76.570323,76.570323,9896.714274
296.233332,76.570323,76.570323,9896.714274
296.235833,-19.142581,76.570323,9820.143950
296.238334,76.570323,114.855485,9801.001370
296.240835,76.570323,229.710970,9820.143950
296.243336,76.570323,229.710970,9762.716208
296.245836,95.712904,153.140646,9877.571693
296.248337,153.140646,95.712904,9858.429112
296.250838,76.570323,172.283227,9820.143950
296.253339,76.570323,210.568389,9839.286531
296.255840,19.142581,229.710970,9820.143950
296.258341,114.855485,153.140646,9820.143950
296.260842,38.285162,38.285162,9858.429112
296.263343,57.427742,95.712904,9896.714274
296.265844,76.570323,191.425808,9896.714274
296.268345,19.142581,191.425808,9896.714274
296.270846,57.427742,306.281293,9839.286531
296.273347,19.142581,133.998066,9839.286531
296.275848,57.427742,95.712904,9896.714274
296.278349,76.570323,95.712904,9934.999435
296.280850,19.142581,191.425808,9839.286531
296.283363,57.427742,287.138712,9801.001370
296.285876,114.855485,210.568389,9820.143950
296.288388,114.855485,114.855485,9820.143950
296.290901,57.427742,0.000000,9839.286531
296.293413,133.998066,172.283227,9858.429112
296.295926,76.570323,210.568389,9762.716208
296.298439,38.285162,210.568389,9724.431046
296.300951,19.142581,191.425808,9896.714274
296.303464,76.570323,172.283227,9877.571693
296.305977,114.855485,114.855485,9839.286531
296.308489,95.712904,172.283227,9858.429112
296.311002,76.570323,229.710970,9762.716208
296.313514,19.142581,248.853550,9781.858789
296.316027,76.570323,133.998066,9915.856854
296.318540,76.570323,114.855485,9877.571693
296.321052,38.285162,114.855485,9915.856854
296.323565,76.570323,172.283227,9877.571693
296.326078,76.570323,210.568389,9839.286531
296.328590,57.427742,229.710970,9801.001370
296.331103,76.570323,153.140646,9820.143950
296.333616,19.142581,95.712904,9934.999435
296.336128,133.998066,133.998066,9896.714274
296.338641,76.570323,229.710970,9820.143950
296.341153,38.285162,287.138712,9896.714274
296.343666,76.570323,133.998066,9896.714274
296.346179,114.855485,95.712904,9896.714274
296.348691,133.998066,38.285162,9915.856854
296.351204,95.712904,229.710970,9801.001370
296.353717,38.285162,287.138712,9762.716208
296.356229,114.855485,210.568389,9762.716208
296.358742,76.570323,172.283227,9896.714274
296.361254,38.285162,76.570323,9820.143950
296.363767,38.285162,133.998066,9858.429112
296.366280,76.570323,229.710970,9858.429112
296.368792,57.427742,306.281293,9781.858789
296.371305,38.285162,248.853550,9781.858789
296.373818,38.285162,95.712904,9896.714274
296.376330,95.712904,153.140646,9820.143950
296.378843,133.998066,114.855485,9858.429112
296.381356,19.142581,248.853550,9801.001370
296.383878,76.570323,210.568389,9839.286531
296.386401,57.427742,133.998066,9877.571693
296.388924,57.427742,133.998066,9934.999435
296.391447,114.855485,114.855485,9877.571693
296.393970,76.570323,191.425808,9877.571693
296.396493,114.855485,229.710970,9762.716208
296.399015,76.570323,210.568389,9820.143950
296.401538,19.142581,95.712904,9934.999435
296.404061,76.570323,76.570323,9896.714274
296.406584,57.427742,95.712904,9896.714274
296.409107,76.570323,172.283227,9820.143950
296.411630,76.570323,172.283227,9762.716208
296.414152,76.570323,210.568389,9877.571693
296.416675,38.285162,76.570323,9973.284597
296.419198,38.285162,38.285162,9877.571693
296.421721,-19.142581,229.710970,9896.714274
296.424244,95.712904,191.425808,9762.716208
296.426766,95.712904,229.710970,9820.143950
296.429289,114.855485,153.140646,9877.571693
296.431812,19.142581,95.712904,9877.571693
296.434335,19.142581,153.140646,9896.714274
296.436858,76.570323,210.568389,9858.429112
296.439381,57.427742,248.853550,9743.573627
296.441903,57.427742,287.138712,9839.286531
296.444426,76.570323,114.855485,9877.571693
296.446949,57.427742,57.427742,9896.714274
296.449472,133.998066,153.140646,9858.429112
296.451995,19.142581,172.283227,9858.429112
296.454518,76.570323,287.138712,9762.716208
296.457040,76.570323,229.710970,9820.143950
296.459563,38.285162,76.570323,9839.286531
296.462086,95.712904,95.712904,9839.286531
296.464609,133.998066,172.283227,9858.429112
296.467132,57.427742,306.281293,9781.858789
296.469655,114.855485,191.425808,9839.286531
296.472177,57.427742,153.140646,9877.571693
296.474700,76.570323,38.285162,9915.856854
296.477223,76.570323,172.283227,9820.143950
296.479746,95.712904,210.568389,9820.143950
296.482269,38.285162,191.425808,9724.431046
296.484800,114.855485,172.283227,9801.001370
296.487331,76.570323,76.570323,9915.856854
296.489861,38.285162,114.855485,9915.856854
296.492392,57.427742,114.855485,9781.858789
296.494923,133.998066,153.140646,9858.429112
296.497454,76.570323,229.710970,9877.571693
296.499985,76.570323,210.568389,9820.143950
296.502516,-0.000000,248.853550,9896.714274
296.505047,19.142581,95.712904,9934.999435
296.507578,76.570323,210.568389,9858.429112
296.510108,114.855485,229.710970,9839.286531
296.512639,76.570323,172.283227,9858.429112
296.515170,76.570323,172.283227,9820.143950
296.517701,57.427742,95.712904,9801.001370
296.520232,76.570323,133.998066,9915.856854
296.522763,76.570323,210.568389,9820.143950
296.525294,95.712904,229.710970,9858.429112
296.527825,57.427742,210.568389,9896.714274
296.530356,76.570323,114.855485,9877.571693
296.532886,114.855485,76.570323,9896.714274
296.535417,19.142581,133.998066,9896.714274
296.537948,114.855485,229.710970,9858.429112
296.540479,19.142581,248.853550,9896.714274
296.543010,95.712904,172.283227,9877.571693
296.545541,76.570323,210.568389,9877.571693
296.548072,38.285162,76.570323,9820.143950
296.550603,19.142581,191.425808,9781.858789
296.553133,95.712904,114.855485,9839.286531
296.555664,19.142581,153.140646,9781.858789
296.558195,95.712904,95.712904,9801.001370
296.560726,57.427742,95.712904,9839.286531
296.563257,133.998066,153.140646,9877.571693
296.565788,76.570323,229.710970,9877.571693
296.568319,19.142581,191.425808,9858.429112
296.570850,76.570323,210.568389,9839.286531
296.573381,38.285162,38.285162,9858.429112
296.575911,95.712904,57.427742,9896.714274
296.578442,114.855485,38.285162,9915.856854
296.580973,95.712904,210.568389,9877.571693
296.583504,95.712904,172.283227,9858.429112
296.586041,95.712904,172.283227,9839.286531
296.588579,95.712904,57.427742,9839.286531
296.591116,95.712904,114.855485,9877.571693
296.593653,76.570323,172.283227,9762.716208
296.596191,95.712904,191.425808,9820.143950
296.598728,133.998066,210.568389,9801.001370
296.601266,76.570323,114.855485,9877.571693
296.603803,95.712904,95.712904,9801.001370
296.606340,57.427742,153.140646,9934.999435
296.608878,-0.000000,191.425808,9858.429112
296.611415,19.142581,248.853550,9781.858789
296.613952,38.285162,191.425808,9915.856854
296.616490,38.285162,114.855485,9973.284597
296.619027,95.712904,76.570323,9915.856854
296.621564,76.570323,133.998066,9915.856854
296.624102,57.427742,287.138712,9839.286531
296.626639,76.570323,191.425808,9877.571693
296.629176,57.427742,153.140646,9934.999435
296.631714,19.142581,133.998066,9858.429112
296.634251,57.427742,133.998066,9934.999435
296.636788,76.570323,114.855485,9801.001370
296.639326,114.855485,229.710970,9801.001370
296.641863,76.570323,153.140646,9877.571693
296.644400,95.712904,114.855485,9934.999435
296.646938,19.142581,95.712904,9934.999435
296.649475,19.142581,191.425808,9839.286531
296.652012,19.142581,248.853550,9820.143950
296.654550,95.712904,172.283227,9801.001370
296.657087,133.998066,153.140646,9877.571693
296.659624,19.142581,133.998066,9781.858789
296.662162,57.427742,114.855485,9801.001370
296.664699,114.855485,153.140646,9877.571693
296.667237,95.712904,210.568389,9877.571693
296.669774,76.570323,229.710970,9762.716208
296.672311,57.427742,95.712904,9896.714274
296.674849,19.142581,133.998066,9858.429112
296.677386,76.570323,114.855485,9801.001370
296.679923,76.570323,210.568389,9820.143950
296.682461,114.855485,287.138712,9781.858789
296.684998,57.427742,229.710970,9858.429112
