#time,accel_x,accel_y,accel_z
349.927950,76.570323,172.283227,9877.571693
349.930953,76.570323,191.425808,9877.571693
349.933956,76.570323,172.283227,9877.571693
349.936958,19.142581,153.140646,9801.001370
349.939961,114.855485,229.710970,9858.429112
349.942964,114.855485,210.568389,9820.143950
349.945966,-19.142581,210.568389,9973.284597
349.948969,76.570323,153.140646,9839.286531
349.951972,76.570323,210.568389,9820.143950
349.954974,133.998066,172.283227,9839.286531
349.957977,76.570323,229.710970,9877.571693
349.960980,153.140646,95.712904,9858.429112
349.963982,76.570323,114.855485,9858.429112
349.966985,57.427742,95.712904,9896.714274
349.969988,19.142581,133.998066,9839.286531
349.972990,19.142581,306.281293,9934.999435
349.975993,76.570323,267.996131,9915.856854
349.978996,57.427742,133.998066,9667.003304
349.981999,114.855485,38.285162,9743.573627
349.985001,153.140646,38.285162,9877.571693
349.988004,95.712904,133.998066,9743.573627
349.991007,95.712904,306.281293,9781.858789
349.994009,76.570323,229.710970,9877.571693
349.997012,76.570323,229.710970,9877.571693
350.000015,19.142581,114.855485,10011.569758
350.003017,95.712904,76.570323,10011.569758
350.006020,191.425808,114.855485,9934.999435
350.009023,76.570323,114.855485,9820.143950
350.011394,19.142581,76.570323,9934.999435
350.013765,19.142581,287.138712,9934.999435
350.016137,19.142581,191.425808,9858.429112
350.018508,76.570323,229.710970,9820.143950
350.020880,76.570323,172.283227,9762.716208
350.023251,57.427742,95.712904,9781.858789
350.025623,57.427742,95.712904,9781.858789
350.027994,76.570323,114.855485,9762.716208
350.030365,76.570323,172.283227,9743.573627
350.032737,57.427742,191.425808,9743.573627
350.035108,133.998066,114.855485,9858.429112
350.037480,153.140646,153.140646,9973.284597
350.039851,38.285162,172.283227,9973.284597
350.042222,-19.142581,114.855485,9973.284597
350.044594,38.285162,210.568389,9915.856854
350.046965,95.712904,191.425808,9877.571693
350.049337,133.998066,229.710970,9877.571693
350.051708,57.427742,191.425808,9934.999435
350.054080,57.427742,248.853550,9877.571693
350.056451,57.427742,306.281293,9801.001370
350.058822,153.140646,229.710970,9801.001370
350.061194,76.570323,172.283227,9877.571693
350.063565,95.712904,191.425808,9743.573627
350.065937,95.712904,153.140646,9762.716208
350.068308,76.570323,172.283227,9762.716208
350.070680,76.570323,153.140646,9820.143950
350.073051,133.998066,191.425808,9877.571693
350.075422,19.142581,133.998066,9839.286531
350.077794,19.142581,133.998066,9781.858789
350.080165,76.570323,172.283227,9877.571693
350.082537,114.855485,172.283227,9839.286531
350.084908,95.712904,153.140646,9858.429112
350.087280,76.570323,153.140646,9877.571693
350.089651,76.570323,229.710970,9762.716208
350.092022,76.570323,172.283227,9820.143950
350.094394,153.140646,229.710970,9896.714274
350.096765,76.570323,210.568389,9839.286531
350.099137,114.855485,172.283227,9801.001370
350.101508,76.570323,210.568389,9877.571693
350.103880,153.140646,114.855485,9839.286531
350.106387,57.427742,95.712904,9896.714274
350.108895,57.427742,153.140646,9954.142016
350.111402,76.570323,114.855485,9877.571693
350.113910,38.285162,172.283227,9915.856854
350.116418,38.285162,172.283227,9896.714274
350.118925,76.570323,114.855485,9877.571693
350.121433,38.285162,76.570323,9820.143950
350.123940,76.570323,172.283227,9820.143950
350.126448,19.142581,95.712904,9762.716208
350.128956,-19.142581,153.140646,9839.286531
350.131463,95.712904,114.855485,9820.143950
350.133971,38.285162,-38.285162,9762.716208
350.136478,38.285162,76.570323,9839.286531
350.138986,-0.000000,133.998066,9781.858789
350.141494,76.570323,172.283227,9858.429112
350.144001,114.855485,210.568389,9762.716208
350.146509,114.855485,210.568389,9801.001370
350.149016,153.140646,95.712904,9839.286531
350.151524,114.855485,38.285162,9973.284597
350.154032,57.427742,153.140646,9973.284597
350.156539,19.142581,133.998066,9896.714274
350.159047,57.427742,191.425808,10011.569758
350.161554,76.570323,248.853550,9896.714274
350.164062,-0.000000,210.568389,9973.284597
350.166570,38.285162,76.570323,9858.429112
350.169077,19.142581,191.425808,9781.858789
350.171585,76.570323,229.710970,9762.716208
350.174092,38.285162,114.855485,9705.288466
350.176600,191.425808,210.568389,9762.716208
350.179108,57.427742,133.998066,9705.288466
350.181615,133.998066,172.283227,9820.143950
350.184123,19.142581,153.140646,9781.858789
350.186630,-0.000000,153.140646,9839.286531
350.189138,-38.285162,191.425808,9781.858789
350.191646,38.285162,210.568389,9992.427178
350.194153,19.142581,172.283227,9781.858789
350.196661,191.425808,191.425808,9858.429112
350.199168,19.142581,210.568389,9801.001370
350.201676,210.568389,210.568389,9915.856854
350.204184,57.427742,287.138712,9896.714274
350.206740,38.285162,172.283227,9973.284597
350.209296,38.285162,248.853550,9801.001370
350.211852,172.283227,133.998066,9934.999435
350.214408,19.142581,191.425808,9858.429112
350.216964,229.710970,210.568389,9896.714274
350.219520,19.142581,153.140646,9801.001370
350.222076,95.712904,191.425808,9877.571693
350.224632,-19.142581,191.425808,9781.858789
350.227188,57.427742,191.425808,9934.999435
350.229744,19.142581,191.425808,9781.858789
350.232300,172.283227,76.570323,9877.571693
350.234856,19.142581,172.283227,9762.716208
350.237412,95.712904,133.998066,9877.571693
350.239969,38.285162,191.425808,9762.716208
350.242525,19.142581,172.283227,9820.143950
350.245081,57.427742,210.568389,9762.716208
350.247637,133.998066,114.855485,9820.143950
350.250193,38.285162,248.853550,9858.429112
350.252749,191.425808,95.712904,9877.571693
350.255305,57.427742,95.712904,9858.429112
350.257861,153.140646,210.568389,9954.142016
350.260417,133.998066,210.568389,9801.001370
350.262973,57.427742,191.425808,9934.999435
350.265529,76.570323,229.710970,9839.286531
350.268085,19.142581,133.998066,9858.429112
350.270641,95.712904,229.710970,9820.143950
350.273197,191.425808,133.998066,9896.714274
350.275754,76.570323,172.283227,9877.571693
350.278310,38.285162,38.285162,9877.571693
350.280866,-57.427742,153.140646,9781.858789
350.283422,76.570323,76.570323,9915.856854
350.285978,38.285162,267.996131,9820.143950
350.288534,57.427742,172.283227,9647.860723
350.291090,153.140646,133.998066,9858.429112
350.293646,57.427742,95.712904,9781.858789
350.296202,95.712904,153.140646,9820.143950
350.298758,-19.142581,38.285162,9762.716208
350.301314,76.570323,229.710970,9820.143950
350.303870,76.570323,172.283227,9877.571693
350.306426,19.142581,191.425808,9896.714274
350.308996,76.570323,172.283227,9801.001370
350.311566,76.570323,210.568389,9877.571693
350.314136,95.712904,153.140646,9973.284597
350.316706,114.855485,210.568389,9877.571693
350.319275,57.427742,76.570323,9839.286531
350.321845,57.427742,191.425808,9934.999435
350.324415,153.140646,153.140646,9877.571693
350.326985,76.570323,114.855485,9858.429112
350.329555,38.285162,153.140646,9877.571693
350.332125,114.855485,210.568389,9877.571693
350.334694,-95.712904,76.570323,9724.431046
350.337264,57.427742,114.855485,9801.001370
350.339834,19.142581,153.140646,9781.858789
350.342404,114.855485,114.855485,9801.001370
350.344974,57.427742,172.283227,9743.573627
350.347543,114.855485,210.568389,9877.571693
350.350113,38.285162,229.710970,9724.431046
350.352683,95.712904,153.140646,9934.999435
350.355253,76.570323,172.283227,9820.143950
350.357823,133.998066,76.570323,9915.856854
350.360392,57.427742,95.712904,9801.001370
350.362962,114.855485,153.140646,9934.999435
350.365532,76.570323,191.425808,9820.143950
350.368102,191.425808,172.283227,9858.429112
350.370672,76.570323,229.710970,9801.001370
350.373241,153.140646,191.425808,9954.142016
350.375811,57.427742,95.712904,9858.429112
350.378381,19.142581,114.855485,9934.999435
350.380951,19.142581,191.425808,9858.429112
350.383521,114.855485,153.140646,9954.142016
350.386091,38.285162,325.423874,9801.001370
350.388660,57.427742,153.140646,9858.429112
350.391230,57.427742,287.138712,9801.001370
350.393800,95.712904,191.425808,9877.571693
350.396370,38.285162,153.140646,9724.431046
350.398940,133.998066,210.568389,9839.286531
350.401509,19.142581,133.998066,9839.286531
350.404079,57.427742,153.140646,9934.999435
350.406649,-0.000000,287.138712,9762.716208
350.409219,76.570323,172.283227,9877.571693
350.411615,-19.142581,248.853550,9781.858789
350.414010,229.710970,153.140646,9915.856854
350.416406,19.142581,153.140646,9781.858789
350.418802,76.570323,114.855485,9820.143950
350.421198,57.427742,95.712904,9839.286531
350.423594,191.425808,133.998066,9820.143950
350.425990,38.285162,248.853550,9877.571693
350.428385,19.142581,248.853550,9896.714274
350.430781,38.285162,248.853550,9839.286531
350.433177,95.712904,191.425808,9934.999435
350.435573,76.570323,153.140646,9801.001370
350.437969,76.570323,76.570323,9915.856854
350.440365,76.570323,191.425808,9781.858789
350.442760,57.427742,133.998066,9858.429112
350.445156,133.998066,210.568389,9762.716208
350.447552,114.855485,114.855485,9877.571693
350.449948,38.285162,210.568389,9801.001370
350.452344,19.142581,114.855485,9839.286531
350.454740,38.285162,172.283227,9781.858789
350.457135,76.570323,38.285162,9915.856854
350.459531,76.570323,114.855485,9877.571693
350.461927,19.142581,153.140646,9781.858789
350.464323,76.570323,210.568389,9762.716208
350.466719,57.427742,114.855485,9781.858789
350.469115,-19.142581,191.425808,9896.714274
350.471510,114.855485,114.855485,9877.571693
350.473906,153.140646,172.283227,9877.571693
350.476302,95.712904,95.712904,9820.143950
350.478698,114.855485,95.712904,9801.001370
350.481094,57.427742,153.140646,9877.571693
350.483489,133.998066,191.425808,9896.714274
350.485885,19.142581,210.568389,9762.716208
350.488281,57.427742,306.281293,9877.571693
350.490677,38.285162,76.570323,9743.573627
350.493073,57.427742,95.712904,9801.001370
350.495469,57.427742,0.000000,9839.286531
350.497864,19.142581,153.140646,9877.571693
350.500260,-0.000000,191.425808,9801.001370
350.502656,19.142581,229.710970,9820.143950
350.505052,57.427742,95.712904,9781.858789
350.507510,57.427742,114.855485,9896.714274
350.509969,76.570323,76.570323,9781.858789
350.512427,76.570323,114.855485,9858.429112
350.514886,76.570323,172.283227,9762.716208
350.517344,153.140646,95.712904,9896.714274
350.519802,114.855485,172.283227,9858.429112
350.522261,57.427742,153.140646,9954.142016
350.524719,76.570323,210.568389,9820.143950
350.527178,95.712904,191.425808,9934.999435
350.529636,38.285162,248.853550,9820.143950
350.532095,191.425808,153.140646,9839.286531
350.534553,57.427742,95.712904,9781.858789
350.537011,95.712904,133.998066,9934.999435
350.539470,19.142581,248.853550,9820.143950
350.541928,191.425808,210.568389,9858.429112
350.544387,19.142581,191.425808,9781.858789
350.546845,210.568389,153.140646,9896.714274
350.549304,57.427742,114.855485,9801.001370
350.551762,114.855485,172.283227,9934.999435
350.554220,57.427742,191.425808,9877.571693
350.556679,76.570323,210.568389,9858.429112
350.559137,76.570323,287.138712,9820.143950
350.561596,76.570323,172.283227,9858.429112
350.564054,-19.142581,133.998066,9762.716208
350.566513,114.855485,210.568389,9877.571693
350.568971,-0.000000,191.425808,9781.858789
350.571429,76.570323,153.140646,9858.429112
350.573888,57.427742,287.138712,9896.714274
350.576346,76.570323,172.283227,9877.571693
350.578805,114.855485,229.710970,9820.143950
350.581263,153.140646,153.140646,9934.999435
350.583722,-0.000000,267.996131,9915.856854
350.586180,133.998066,172.283227,9858.429112
350.588638,19.142581,153.140646,9781.858789
350.591097,114.855485,133.998066,9934.999435
350.593555,19.142581,191.425808,9781.858789
350.596014,57.427742,210.568389,9973.284597
350.598472,76.570323,229.710970,9762.716208
350.600931,76.570323,172.283227,9801.001370
350.603389,19.142581,191.425808,9839.286531
350.605885,153.140646,114.855485,9781.858789
350.608380,76.570323,172.283227,9820.143950
350.610876,57.427742,95.712904,9820.143950
350.613372,57.427742,267.996131,9762.716208
350.615867,76.570323,191.425808,9877.571693
350.618363,57.427742,287.138712,9781.858789
350.620859,76.570323,114.855485,9839.286531
350.623354,76.570323,210.568389,9839.286531
350.625850,76.570323,76.570323,9896.714274
350.628346,19.142581,191.425808,9801.001370
350.630841,76.570323,172.283227,9762.716208
350.633337,76.570323,172.283227,9877.571693
350.635833,57.427742,210.568389,9934.999435
350.638328,57.427742,229.710970,9801.001370
350.640824,57.427742,95.712904,9896.714274
350.643320,76.570323,172.283227,9877.571693
350.645815,-57.427742,133.998066,9781.858789
350.648311,57.427742,133.998066,9934.999435
350.650807,114.855485,172.283227,9762.716208
350.653302,133.998066,172.283227,9820.143950
350.655798,76.570323,153.140646,9877.571693
350.658294,76.570323,172.283227,9820.143950
350.660789,76.570323,172.283227,9820.143950
350.663285,76.570323,210.568389,9820.143950
350.665781,57.427742,114.855485,9820.143950
350.668276,95.712904,95.712904,9781.858789
350.670772,57.427742,95.712904,9820.143950
350.673268,95.712904,114.855485,9858.429112
350.675763,19.142581,133.998066,9820.143950
350.678259,38.285162,210.568389,9915.856854
350.680755,19.142581,133.998066,9839.286531
350.683250,38.285162,287.138712,9915.856854
350.685746,38.285162,133.998066,9762.716208
350.688242,153.140646,76.570323,9896.714274
350.690737,38.285162,133.998066,9820.143950
350.693233,57.427742,133.998066,9934.999435
350.695729,19.142581,191.425808,9839.286531
350.698224,95.712904,248.853550,9934.999435
350.700720,19.142581,191.425808,9781.858789
350.703216,191.425808,172.283227,9820.143950
350.705735,57.427742,95.712904,9801.001370
350.708255,95.712904,133.998066,9915.856854
350.710775,-19.142581,114.855485,9858.429112
350.713294,76.570323,248.853550,9915.856854
350.715814,19.142581,153.140646,9801.001370
350.718334,133.998066,229.710970,9820.143950
350.720853,76.570323,114.855485,9801.001370
350.723373,153.140646,248.853550,9954.142016
350.725893,38.285162,76.570323,9820.143950
350.728413,153.140646,95.712904,9896.714274
350.730932,19.142581,210.568389,9896.714274
350.733452,114.855485,210.568389,9877.571693
350.735972,38.285162,248.853550,9839.286531
350.738491,153.140646,248.853550,9954.142016
350.741011,-0.000000,248.853550,9858.429112
350.743531,114.855485,191.425808,9934.999435
350.746050,19.142581,133.998066,9801.001370
350.748570,153.140646,114.855485,9896.714274
350.751090,57.427742,114.855485,9781.858789
350.753609,57.427742,153.140646,9954.142016
350.756129,19.142581,248.853550,9801.001370
350.758649,76.570323,210.568389,9877.571693
350.761168,19.142581,248.853550,9801.001370
350.763688,153.140646,133.998066,9934.999435
350.766208,38.285162,38.285162,9820.143950
350.768727,153.140646,172.283227,9839.286531
350.771247,19.142581,133.998066,9801.001370
350.773767,76.570323,210.568389,9877.571693
350.776286,38.285162,325.423874,9762.716208
350.778806,114.855485,287.138712,9839.286531
350.781326,57.427742,248.853550,9934.999435
350.783845,95.712904,191.425808,9820.143950
350.786365,95.712904,210.568389,9820.143950
350.788885,95.712904,57.427742,9839.286531
350.791404,95.712904,191.425808,9858.429112
350.793924,114.855485,229.710970,9858.429112
350.796444,76.570323,229.710970,9839.286531
350.798963,76.570323,229.710970,9858.429112
350.801483,76.570323,229.710970,9877.571693
350.804003,57.427742,95.712904,9801.001370
350.806536,114.855485,172.283227,9762.716208
350.809069,153.140646,95.712904,9839.286531
350.811602,76.570323,114.855485,9820.143950
350.814135,76.570323,114.855485,9858.429112
350.816668,-57.427742,287.138712,9781.858789
350.819201,38.285162,191.425808,9858.429112
350.821734,38.285162,248.853550,9934.999435
350.824267,-19.142581,76.570323,9820.143950
350.826800,114.855485,153.140646,9762.716208
350.829333,57.427742,95.712904,9801.001370
350.831866,95.712904,95.712904,9858.429112
350.834399,38.285162,172.283227,9915.856854
350.836932,95.712904,363.709035,9915.856854
350.839465,57.427742,191.425808,9877.571693
350.841998,133.998066,153.140646,9877.571693
350.844531,76.570323,19.142581,9915.856854
350.847064,95.712904,95.712904,9781.858789
350.849597,76.570323,172.283227,9877.571693
350.852130,95.712904,191.425808,9877.571693
350.854663,76.570323,191.425808,9801.001370
350.857196,19.142581,267.996131,9839.286531
350.859729,76.570323,172.283227,9877.571693
350.862262,95.712904,172.283227,9877.571693
350.864795,57.427742,57.427742,9896.714274
350.867328,133.998066,114.855485,9858.429112
350.869861,114.855485,133.998066,9724.431046
350.872394,76.570323,172.283227,9820.143950
350.874927,76.570323,133.998066,9915.856854
350.877460,76.570323,191.425808,9877.571693
350.879993,133.998066,229.710970,9858.429112
350.882526,114.855485,172.283227,9820.143950
350.885059,57.427742,95.712904,9820.143950
350.887592,76.570323,114.855485,9858.429112
350.890125,19.142581,114.855485,9762.716208
350.892658,76.570323,229.710970,9820.143950
350.895191,19.142581,267.996131,9801.001370
350.897724,38.285162,267.996131,9801.001370
350.900257,57.427742,191.425808,9858.429112
350.902790,172.283227,153.140646,9934.999435
350.905323,38.285162,38.285162,9877.571693
350.907860,57.427742,133.998066,9934.999435
350.910400,76.570323,172.283227,9877.571693
350.912941,38.285162,210.568389,9896.714274
350.915482,57.427742,287.138712,9801.001370
350.918023,114.855485,210.568389,9877.571693
350.920564,19.142581,172.283227,9801.001370
350.923105,57.427742,133.998066,9934.999435
350.925646,76.570323,114.855485,9820.143950
350.928186,57.427742,95.712904,9896.714274
350.930727,95.712904,114.855485,9762.716208
350.933268,76.570323,248.853550,9896.714274
350.935809,38.285162,325.423874,9877.571693
350.938350,133.998066,114.855485,9877.571693
350.940891,76.570323,210.568389,9762.716208
350.943432,114.855485,95.712904,9858.429112
350.945972,76.570323,95.712904,9743.573627
350.948513,95.712904,114.855485,9839.286531
350.951054,19.142581,153.140646,9820.143950
350.953595,95.712904,325.423874,9973.284597
350.956136,57.427742,287.138712,9858.429112
350.958677,38.285162,229.710970,9954.142016
350.961218,57.427742,287.138712,9858.429112
350.963759,114.855485,76.570323,9915.856854
350.966299,114.855485,114.855485,9762.716208
350.968840,57.427742,133.998066,9934.999435
350.971381,38.285162,325.423874,9762.716208
350.973922,57.427742,287.138712,9839.286531
350.976463,57.427742,287.138712,9858.429112
350.979004,172.283227,153.140646,9915.856854
350.981545,38.285162,229.710970,9915.856854
350.984085,57.427742,57.427742,9801.001370
350.986626,76.570323,229.710970,9762.716208
350.989167,153.140646,133.998066,9934.999435
350.991708,19.142581,191.425808,9801.001370
350.994249,57.427742,133.998066,9954.142016
350.996790,38.285162,306.281293,9877.571693
350.999331,153.140646,191.425808,9934.999435
351.001871,57.427742,229.710970,9801.001370
351.004412,172.283227,38.285162,9858.429112
351.006953,57.427742,95.712904,9896.714274
351.009497,76.570323,76.570323,9934.999435
351.012041,95.712904,306.281293,9820.143950
351.014584,114.855485,229.710970,9877.571693
351.017128,76.570323,287.138712,9858.429112
351.019672,76.570323,114.855485,9858.429112
351.022216,76.570323,114.855485,9839.286531
351.024759,38.285162,76.570323,9877.571693
351.027303,114.855485,133.998066,9743.573627
351.029847,153.140646,76.570323,9858.429112
351.032391,114.855485,95.712904,9858.429112
351.034934,76.570323,76.570323,9915.856854
351.037478,38.285162,267.996131,9877.571693
351.040022,95.712904,325.423874,9896.714274
351.042566,76.570323,325.423874,9896.714274
351.045109,95.712904,0.000000,9801.001370
351.047653,95.712904,133.998066,9743.573627
351.050197,133.998066,-38.285162,9801.001370
351.052740,19.142581,153.140646,9858.429112
351.055284,-0.000000,267.996131,9877.571693
351.057828,76.570323,287.138712,9839.286531
351.060372,133.998066,191.425808,9858.429112
351.062915,114.855485,172.283227,9820.143950
351.065459,19.142581,0.000000,9877.571693
351.068003,114.855485,114.855485,9762.716208
351.070547,95.712904,95.712904,9839.286531
351.073090,38.285162,210.568389,9915.856854
351.075634,19.142581,191.425808,9877.571693
351.078178,114.855485,191.425808,9877.571693
351.080722,57.427742,114.855485,9801.001370
351.083265,114.855485,172.283227,9839.286531
351.085809,76.570323,114.855485,9820.143950
351.088353,133.998066,172.283227,9820.143950
351.090897,19.142581,114.855485,9801.001370
351.093440,76.570323,172.283227,9820.143950
351.095984,57.427742,153.140646,9934.999435
351.098528,114.855485,248.853550,9934.999435
351.101072,-38.285162,325.423874,9839.286531
351.103615,76.570323,153.140646,9820.143950
351.106159,38.285162,95.712904,9781.858789
351.108703,114.855485,38.285162,9896.714274
351.111247,76.570323,114.855485,9858.429112
351.113792,76.570323,172.283227,9839.286531
351.116337,57.427742,287.138712,9781.858789
351.118881,114.855485,153.140646,9934.999435
351.121426,19.142581,191.425808,9839.286531
351.123971,76.570323,153.140646,9839.286531
351.126516,76.570323,114.855485,9820.143950
351.129060,76.570323,210.568389,9858.429112
351.131605,76.570323,172.283227,9762.716208
351.134150,114.855485,172.283227,9934.999435
351.136694,-19.142581,248.853550,9781.858789
351.139239,38.285162,172.283227,9915.856854
351.141784,57.427742,306.281293,9858.429112
351.144328,114.855485,76.570323,9954.142016
351.146873,114.855485,114.855485,9820.143950
351.149418,133.998066,114.855485,9858.429112
351.151962,19.142581,248.853550,9801.001370
351.154507,57.427742,210.568389,9954.142016
351.157052,19.142581,248.853550,9781.858789
351.159596,76.570323,229.710970,9858.429112
351.162141,-19.142581,153.140646,9781.858789
351.164686,57.427742,38.285162,9896.714274
351.167230,19.142581,172.283227,9820.143950
351.169775,95.712904,95.712904,9839.286531
351.172320,-38.285162,248.853550,9858.429112
351.174865,76.570323,191.425808,9858.429112
351.177409,-0.000000,363.709035,9801.001370
351.179954,153.140646,153.140646,9934.999435
351.182499,76.570323,133.998066,9858.429112
351.185043,114.855485,76.570323,9896.714274
351.187588,153.140646,191.425808,9762.716208
351.190133,76.570323,172.283227,9762.716208
351.192677,76.570323,210.568389,9762.716208
351.195222,133.998066,114.855485,9877.571693
351.197767,19.142581,191.425808,9896.714274
351.200311,95.712904,229.710970,9877.571693
351.202856,-19.142581,133.998066,9858.429112
351.205401,19.142581,57.427742,9934.999435
351.207945,133.998066,76.570323,9705.288466
351.210490,153.140646,57.427742,9839.286531
351.213034,95.712904,210.568389,9877.571693
351.215578,19.142581,248.853550,9896.714274
351.218121,38.285162,325.423874,9801.001370
351.220665,76.570323,229.710970,9820.143950
351.223209,191.425808,172.283227,9858.429112
351.225753,57.427742,-19.142581,9915.856854
351.228297,114.855485,95.712904,9781.858789
351.230840,57.427742,95.712904,9801.001370
351.233384,95.712904,325.423874,9896.714274
351.235928,-19.142581,267.996131,9801.001370
351.238472,133.998066,267.996131,9896.714274
351.241016,76.570323,172.283227,9839.286531
351.243559,95.712904,133.998066,9877.571693
351.246103,38.285162,57.427742,9839.286531
351.248647,95.712904,57.427742,9801.001370
351.251191,76.570323,76.570323,9724.431046
351.253735,57.427742,229.710970,9896.714274
351.256278,57.427742,287.138712,9839.286531
351.258822,95.712904,325.423874,9915.856854
351.261366,19.142581,133.998066,9839.286531
351.263910,76.570323,114.855485,9877.571693
351.266453,38.285162,19.142581,9820.143950
351.268997,133.998066,95.712904,9858.429112
351.271541,76.570323,114.855485,9762.716208
351.274085,76.570323,267.996131,9915.856854
351.276629,19.142581,267.996131,9896.714274
351.279172,57.427742,344.566454,9896.714274
351.281716,19.142581,191.425808,9858.429112
351.284260,95.712904,95.712904,9896.714274
351.286804,38.285162,133.998066,9820.143950
351.289348,95.712904,0.000000,9896.714274
351.291891,76.570323,133.998066,9686.145885
351.294435,153.140646,287.138712,9801.001370
351.296979,-57.427742,267.996131,9820.143950
351.299523,191.425808,248.853550,9915.856854
351.302067,19.142581,172.283227,9839.286531
351.304610,19.142581,95.712904,9934.999435
351.307154,19.142581,95.712904,9743.573627
351.309698,57.427742,0.000000,9858.429112
351.312242,19.142581,210.568389,9801.001370
351.314784,114.855485,210.568389,9877.571693
351.317326,57.427742,306.281293,9839.286531
351.319868,133.998066,267.996131,9992.427178
351.322410,-76.570323,287.138712,9839.286531
351.324952,133.998066,114.855485,9801.001370
351.327494,95.712904,95.712904,9801.001370
351.330036,114.855485,38.285162,9915.856854
351.332578,19.142581,191.425808,9724.431046
351.335120,172.283227,325.423874,9820.143950
351.337663,38.285162,363.709035,9820.143950
351.340205,95.712904,210.568389,9973.284597
351.342747,19.142581,248.853550,9858.429112
351.345289,57.427742,95.712904,9858.429112
351.347831,95.712904,153.140646,9743.573627
351.350373,153.140646,76.570323,9839.286531
351.352915,76.570323,172.283227,9762.716208
351.355457,76.570323,210.568389,9839.286531
351.357999,38.285162,229.710970,9896.714274
351.360541,57.427742,191.425808,9934.999435
351.363083,38.285162,229.710970,9915.856854
351.365625,76.570323,172.283227,9877.571693
351.368168,153.140646,153.140646,9762.716208
351.370710,57.427742,57.427742,9839.286531
351.373252,38.285162,191.425808,9858.429112
351.375794,57.427742,133.998066,9934.999435
351.378336,57.427742,344.566454,9781.858789
351.380878,57.427742,153.140646,9934.999435
351.383420,95.712904,153.140646,9839.286531
351.385962,57.427742,57.427742,9896.714274
351.388504,133.998066,76.570323,9686.145885
351.391046,153.140646,76.570323,9820.143950
351.393588,153.140646,287.138712,9858.429112
351.396130,95.712904,153.140646,9934.999435
351.398673,57.427742,229.710970,9896.714274
351.401215,57.427742,95.712904,9839.286531
351.403757,19.142581,210.568389,9858.429112
351.406299,133.998066,57.427742,9896.714274
351.408841,114.855485,172.283227,9820.143950
351.411383,57.427742,76.570323,9877.571693
351.413925,19.142581,210.568389,9858.429112
351.416465,19.142581,95.712904,9896.714274
351.419006,95.712904,363.709035,9896.714274
351.421546,76.570323,229.710970,9877.571693
351.424086,19.142581,248.853550,9801.001370
351.426627,114.855485,153.140646,9934.999435
351.429167,114.855485,95.712904,9839.286531
351.431707,76.570323,172.283227,9762.716208
351.434247,57.427742,191.425808,9954.142016
351.436788,-0.000000,267.996131,9724.431046
351.439328,114.855485,287.138712,9858.429112
351.441868,57.427742,153.140646,9934.999435
351.444409,114.855485,95.712904,9801.001370
351.446949,19.142581,133.998066,9801.001370
351.449489,133.998066,114.855485,9839.286531
351.452030,19.142581,191.425808,9724.431046
351.454570,114.855485,267.996131,9781.858789
351.457110,95.712904,76.570323,9781.858789
351.459650,76.570323,133.998066,9781.858789
351.462191,19.142581,95.712904,9820.143950
351.464731,19.142581,95.712904,9934.999435
351.467271,76.570323,210.568389,9801.001370
351.469812,114.855485,210.568389,9820.143950
351.472352,191.425808,172.283227,9839.286531
351.474892,57.427742,133.998066,9934.999435
351.477433,19.142581,95.712904,9934.999435
351.479973,95.712904,172.283227,9877.571693
351.482513,114.855485,95.712904,9896.714274
351.485053,153.140646,248.853550,9992.427178
351.487594,76.570323,153.140646,9801.001370
351.490134,95.712904,172.283227,9705.288466
351.492674,114.855485,95.712904,9820.143950
351.495215,114.855485,38.285162,9973.284597
351.497755,-19.142581,76.570323,9762.716208
351.500295,95.712904,153.140646,9858.429112
351.502836,38.285162,133.998066,9686.145885
351.505376,57.427742,172.283227,9973.284597
351.507916,19.142581,133.998066,9839.286531
351.510456,57.427742,38.285162,9820.143950
351.512997,19.142581,172.283227,9781.858789
351.515537,57.427742,95.712904,9839.286531
351.518075,57.427742,191.425808,9743.573627
351.520613,153.140646,76.570323,9858.429112
351.523151,95.712904,248.853550,9858.429112
351.525689,57.427742,133.998066,9992.427178
351.528227,-19.142581,248.853550,9858.429112
351.530766,19.142581,287.138712,9973.284597
351.533304,114.855485,210.568389,9839.286531
351.535842,133.998066,133.998066,10011.569758
351.538380,95.712904,172.283227,9858.429112
351.540918,76.570323,172.283227,9820.143950
351.543456,95.712904,287.138712,9762.716208
351.545994,114.855485,191.425808,9973.284597
351.548532,95.712904,191.425808,9743.573627
351.551070,57.427742,133.998066,9934.999435
351.553608,19.142581,153.140646,9839.286531
351.556146,19.142581,114.855485,9858.429112
351.558685,114.855485,306.281293,9781.858789
351.561223,19.142581,153.140646,9801.001370
351.563761,38.285162,267.996131,9762.716208
351.566299,76.570323,153.140646,9877.571693
351.568837,-0.000000,248.853550,9781.858789
351.571375,76.570323,114.855485,9877.571693
351.573913,57.427742,229.710970,9934.999435
351.576451,19.142581,133.998066,9801.001370
351.578989,76.570323,229.710970,9762.716208
351.581527,19.142581,153.140646,9896.714274
351.584065,57.427742,344.566454,9896.714274
351.586603,57.427742,191.425808,9934.999435
351.589142,76.570323,229.710970,9762.716208
351.591680,76.570323,114.855485,9801.001370
351.594218,114.855485,287.138712,9877.571693
351.596756,114.855485,76.570323,9915.856854
351.599294,95.712904,248.853550,9724.431046
351.601832,76.570323,229.710970,9839.286531
351.604370,19.142581,287.138712,9954.142016
351.606908,19.142581,153.140646,9820.143950
351.609446,76.570323,210.568389,9801.001370
351.611984,76.570323,76.570323,9705.288466
351.614522,57.427742,172.283227,9839.286531
351.617061,38.285162,38.285162,9820.143950
351.619596,114.855485,267.996131,9724.431046
351.622132,-0.000000,191.425808,9781.858789
351.624668,76.570323,267.996131,9973.284597
351.627203,57.427742,114.855485,9801.001370
351.629739,57.427742,95.712904,9858.429112
351.632274,57.427742,114.855485,9915.856854
351.634810,95.712904,153.140646,9877.571693
351.637346,19.142581,133.998066,9839.286531
351.639881,95.712904,210.568389,9801.001370
351.642417,133.998066,191.425808,9839.286531
351.644953,114.855485,248.853550,9954.142016
351.647488,76.570323,114.855485,9801.001370
351.650024,76.570323,114.855485,9762.716208
351.652560,19.142581,95.712904,9934.999435
351.655095,76.570323,57.427742,9915.856854
351.657631,38.285162,76.570323,9858.429112
351.660167,133.998066,114.855485,9820.143950
351.662702,19.142581,248.853550,9781.858789
351.665238,76.570323,191.425808,9896.714274
351.667774,95.712904,114.855485,9801.001370
351.670309,95.712904,-38.285162,9915.856854
351.672845,38.285162,38.285162,9801.001370
351.675381,114.855485,0.000000,9858.429112
351.677916,38.285162,76.570323,9743.573627
351.680452,153.140646,191.425808,9705.288466
351.682988,114.855485,248.853550,9820.143950
351.685523,114.855485,153.140646,9954.142016
351.688059,57.427742,95.712904,9858.429112
351.690595,57.427742,95.712904,9896.714274
351.693130,19.142581,153.140646,9801.001370
351.695666,76.570323,133.998066,9915.856854
351.698202,19.142581,153.140646,9781.858789
351.700737,95.712904,114.855485,9839.286531
351.703273,19.142581,287.138712,9877.571693
351.705809,19.142581,95.712904,9973.284597
351.708344,19.142581,191.425808,9781.858789
351.710880,57.427742,57.427742,9896.714274
351.713416,57.427742,133.998066,9934.999435
351.715951,57.427742,57.427742,9896.714274
351.718487,57.427742,210.568389,9724.431046
351.721021,76.570323,153.140646,9820.143950
351.723554,76.570323,306.281293,9801.001370
351.726088,172.283227,172.283227,9915.856854
351.728622,57.427742,191.425808,9743.573627
351.731156,57.427742,133.998066,9877.571693
351.733689,19.142581,248.853550,9896.714274
351.736223,76.570323,76.570323,9915.856854
351.738757,133.998066,267.996131,9724.431046
351.741291,76.570323,172.283227,9877.571693
351.743825,57.427742,344.566454,9896.714274
351.746358,76.570323,191.425808,9877.571693
351.748892,57.427742,248.853550,9762.716208
351.751426,153.140646,95.712904,9896.714274
351.753960,76.570323,210.568389,9839.286531
351.756493,19.142581,76.570323,9915.856854
351.759027,57.427742,287.138712,9781.858789
351.761561,95.712904,210.568389,9762.716208
351.764095,57.427742,401.994197,9896.714274
351.766628,57.427742,191.425808,9934.999435
351.769162,19.142581,248.853550,9801.001370
351.771696,38.285162,57.427742,9839.286531
351.774230,76.570323,210.568389,9877.571693
351.776763,57.427742,95.712904,9896.714274
351.779297,95.712904,267.996131,9724.431046
351.781831,57.427742,287.138712,9801.001370
351.784365,57.427742,325.423874,10011.569758
351.786899,-0.000000,210.568389,9877.571693
351.789432,76.570323,210.568389,9820.143950
351.791966,57.427742,114.855485,9781.858789
351.794500,133.998066,133.998066,9973.284597
351.797034,76.570323,76.570323,9915.856854
351.799567,153.140646,287.138712,9801.001370
351.802101,19.142581,248.853550,9781.858789
351.804635,76.570323,267.996131,9915.856854
351.807169,76.570323,172.283227,9877.571693
351.809702,76.570323,153.140646,9801.001370
351.812236,19.142581,95.712904,9934.999435
351.814770,76.570323,172.283227,9858.429112
351.817304,57.427742,153.140646,9743.573627
351.819838,133.998066,191.425808,9781.858789
351.822369,76.570323,210.568389,9801.001370
351.824900,19.142581,287.138712,9934.999435
351.827432,-19.142581,133.998066,9781.858789
351.829963,76.570323,114.855485,9762.716208
351.832495,19.142581,133.998066,9801.001370
351.835026,95.712904,57.427742,9801.001370
351.837557,76.570323,95.712904,9686.145885
351.840089,57.427742,95.712904,9801.001370
351.842620,76.570323,229.710970,9820.143950
351.845152,95.712904,172.283227,10011.569758
351.847683,-0.000000,153.140646,9801.001370
351.850214,57.427742,95.712904,9801.001370
351.852746,57.427742,114.855485,9896.714274
351.855277,114.855485,19.142581,9896.714274
351.857809,133.998066,172.283227,9858.429112
351.860340,114.855485,172.283227,9762.716208
351.862872,76.570323,325.423874,9781.858789
351.865403,-0.000000,172.283227,9896.714274
351.867934,38.285162,133.998066,9934.999435
351.870466,114.855485,57.427742,9839.286531
351.872997,38.285162,76.570323,9877.571693
351.875529,-19.142581,114.855485,9915.856854
351.878060,57.427742,325.423874,9781.858789
351.880591,76.570323,114.855485,9762.716208
351.883123,19.142581,191.425808,9896.714274
351.885654,57.427742,38.285162,9839.286531
351.888186,19.142581,191.425808,9801.001370
351.890717,76.570323,76.570323,9934.999435
351.893249,114.855485,172.283227,9877.571693
351.895780,76.570323,114.855485,9839.286531
351.898311,114.855485,153.140646,9762.716208
351.900843,57.427742,114.855485,9781.858789
351.903374,76.570323,287.138712,9877.571693
351.905906,57.427742,153.140646,9973.284597
351.908437,76.570323,172.283227,9858.429112
351.910968,57.427742,95.712904,9781.858789
351.913500,95.712904,153.140646,9877.571693
351.916031,57.427742,95.712904,9896.714274
351.918563,153.140646,287.138712,9781.858789
351.921094,95.712904,229.710970,9762.716208
351.923626,76.570323,267.996131,9915.856854
351.926155,19.142581,95.712904,9934.999435
351.928685,95.712904,133.998066,9934.999435
351.931214,57.427742,57.427742,9801.001370
351.933743,57.427742,191.425808,9934.999435
351.936273,57.427742,191.425808,9896.714274
351.938802,57.427742,325.423874,9781.858789
351.941331,19.142581,306.281293,9686.145885
351.943861,133.998066,287.138712,9877.571693
351.946390,-19.142581,114.855485,9915.856854
351.948919,38.285162,133.998066,9839.286531
351.951448,57.427742,95.712904,9781.858789
351.953978,76.570323,114.855485,9877.571693
351.956507,19.142581,191.425808,9839.286531
351.959036,95.712904,267.996131,9801.001370
351.961566,76.570323,267.996131,9781.858789
351.964095,38.285162,191.425808,10011.569758
351.966624,19.142581,153.140646,9839.286531
351.969154,-0.000000,114.855485,9839.286531
351.971683,76.570323,114.855485,9820.143950
351.974212,57.427742,191.425808,9934.999435
351.976741,114.855485,287.138712,9762.716208
351.979271,114.855485,287.138712,9820.143950
351.981800,57.427742,306.281293,9858.429112
351.984329,76.570323,267.996131,10030.712339
351.986859,-19.142581,248.853550,9781.858789
351.989388,114.855485,114.855485,9858.429112
351.991917,38.285162,76.570323,9762.716208
351.994447,114.855485,114.855485,9877.571693
351.996976,76.570323,114.855485,9762.716208
351.999505,19.142581,191.425808,9801.001370
352.002034,57.427742,306.281293,9839.286531
352.004564,38.285162,210.568389,9915.856854
352.007093,76.570323,210.568389,9877.571693
352.009622,172.283227,-38.285162,9839.286531
352.012152,95.712904,114.855485,9820.143950
352.014681,114.855485,76.570323,9915.856854
352.017210,57.427742,287.138712,9801.001370
352.019739,76.570323,210.568389,9820.143950
352.022269,114.855485,287.138712,9781.858789
352.024797,114.855485,38.285162,9973.284597
352.027326,57.427742,153.140646,9877.571693
352.029855,114.855485,57.427742,9896.714274
352.032383,114.855485,114.855485,9820.143950
352.034912,57.427742,153.140646,9877.571693
352.037440,95.712904,210.568389,9762.716208
352.039969,38.285162,95.712904,9781.858789
352.042498,19.142581,153.140646,9801.001370
352.045026,19.142581,95.712904,9934.999435
352.047555,76.570323,210.568389,9820.143950
352.050083,76.570323,114.855485,9858.429112
352.052612,76.570323,153.140646,9858.429112
352.055141,38.285162,19.142581,9839.286531
352.057669,114.855485,172.283227,9820.143950
352.060198,19.142581,76.570323,9686.145885
352.062726,191.425808,248.853550,9896.714274
352.065255,76.570323,114.855485,9858.429112
352.067784,95.712904,172.283227,9858.429112
352.070312,76.570323,-19.142581,9762.716208
352.072841,95.712904,133.998066,9934.999435
352.075369,95.712904,95.712904,9896.714274
352.077898,114.855485,210.568389,9877.571693
352.080427,57.427742,95.712904,9801.001370
352.082955,76.570323,210.568389,9839.286531
352.085484,-0.000000,114.855485,9896.714274
352.088012,57.427742,287.138712,9781.858789
352.090541,191.425808,191.425808,9781.858789
352.093070,95.712904,287.138712,9896.714274
352.095598,19.142581,0.000000,9801.001370
352.098127,153.140646,114.855485,9820.143950
352.100655,57.427742,95.712904,9781.858789
352.103184,191.425808,229.710970,9934.999435
352.105713,38.285162,267.996131,9762.716208
352.108241,133.998066,153.140646,9934.999435
352.110770,76.570323,172.283227,9762.716208
352.113298,57.427742,210.568389,9954.142016
352.115827,38.285162,76.570323,9820.143950
352.118356,153.140646,248.853550,9762.716208
352.120884,-0.000000,153.140646,9781.858789
352.123413,57.427742,191.425808,9934.999435
352.125884,19.142581,153.140646,9781.858789
352.128356,114.855485,210.568389,9877.571693
352.130827,57.427742,114.855485,9858.429112
352.133299,114.855485,191.425808,10011.569758
352.135770,-38.285162,153.140646,9801.001370
352.138242,267.996131,248.853550,9781.858789
352.140713,19.142581,153.140646,9781.858789
352.143185,153.140646,191.425808,9934.999435
352.145656,114.855485,287.138712,9781.858789
352.148128,76.570323,172.283227,9877.571693
352.150599,57.427742,248.853550,9820.143950
352.153071,57.427742,191.425808,10011.569758
352.155542,19.142581,210.568389,9762.716208
352.158014,229.710970,191.425808,9801.001370
352.160485,76.570323,210.568389,9858.429112
352.162957,153.140646,133.998066,9992.427178
352.165428,-0.000000,191.425808,9724.431046
352.167900,57.427742,153.140646,9934.999435
352.170371,57.427742,229.710970,9858.429112
352.172843,133.998066,133.998066,9915.856854
352.175314,19.142581,153.140646,9781.858789
352.177786,133.998066,114.855485,9762.716208
352.180257,-0.000000,248.853550,9724.431046
352.182728,95.712904,172.283227,10049.854920
352.185200,19.142581,248.853550,9781.858789
352.187671,114.855485,76.570323,9896.714274
352.190143,19.142581,191.425808,9858.429112
352.192614,114.855485,114.855485,9877.571693
352.195086,76.570323,172.283227,9762.716208
352.197557,57.427742,210.568389,9877.571693
352.200029,57.427742,287.138712,9781.858789
352.202500,57.427742,114.855485,9896.714274
352.204972,76.570323,191.425808,9781.858789
352.207443,57.427742,95.712904,9781.858789
352.209915,76.570323,191.425808,9877.571693
352.212386,114.855485,76.570323,9915.856854
352.214858,114.855485,172.283227,9743.573627
352.217329,114.855485,153.140646,9762.716208
352.219801,19.142581,153.140646,9781.858789
352.222272,76.570323,76.570323,9954.142016
352.224704,95.712904,287.138712,9781.858789
352.227135,95.712904,95.712904,9801.001370
352.229566,76.570323,210.568389,9877.571693
352.231997,114.855485,57.427742,9839.286531
352.234429,191.425808,172.283227,9896.714274
352.236860,76.570323,172.283227,9820.143950
352.239291,19.142581,191.425808,9896.714274
352.241722,76.570323,191.425808,9839.286531
352.244154,133.998066,114.855485,9877.571693
352.246585,114.855485,114.855485,9801.001370
352.249016,38.285162,114.855485,9915.856854
352.251447,19.142581,95.712904,9934.999435
352.253878,114.855485,95.712904,9858.429112
352.256310,-0.000000,114.855485,9686.145885
352.258741,172.283227,210.568389,9915.856854
352.261172,114.855485,210.568389,9762.716208
352.263603,133.998066,191.425808,9896.714274
352.266035,38.285162,172.283227,9915.856854
352.268466,38.285162,114.855485,9915.856854
352.270897,38.285162,19.142581,9820.143950
352.273328,76.570323,114.855485,9877.571693
352.275760,38.285162,114.855485,9762.716208
352.278191,114.855485,325.423874,10030.712339
352.280622,-19.142581,248.853550,9781.858789
352.283053,114.855485,210.568389,9839.286531
352.285485,38.285162,95.712904,9820.143950
352.287916,133.998066,76.570323,10011.569758
352.290347,-57.427742,153.140646,9839.286531
352.292778,114.855485,153.140646,9820.143950
352.295210,38.285162,229.710970,9724.431046
352.297641,153.140646,191.425808,9992.427178
352.300072,19.142581,153.140646,9839.286531
352.302503,57.427742,248.853550,9934.999435
352.304934,-0.000000,191.425808,9781.858789
352.307366,95.712904,210.568389,9954.142016
352.309797,19.142581,114.855485,9762.716208
352.312228,153.140646,114.855485,9839.286531
352.314659,38.285162,172.283227,9705.288466
352.317091,153.140646,229.710970,9896.714274
352.319522,-38.285162,267.996131,9781.858789
352.321977,95.712904,133.998066,9934.999435
352.324432,-0.000000,248.853550,9781.858789
352.326887,114.855485,76.570323,9915.856854
352.329343,153.140646,191.425808,9762.716208
352.331798,76.570323,172.283227,9820.143950
352.334253,57.427742,363.709035,9781.858789
352.336708,114.855485,153.140646,9992.427178
352.339163,114.855485,229.710970,9839.286531
352.341618,76.570323,172.283227,9877.571693
352.344074,76.570323,153.140646,9820.143950
352.346529,38.285162,248.853550,9934.999435
352.348984,76.570323,325.423874,9724.431046
352.351439,133.998066,172.283227,9858.429112
352.353894,95.712904,210.568389,9762.716208
352.356349,76.570323,114.855485,9934.999435
352.358805,-19.142581,267.996131,9820.143950
352.361260,114.855485,191.425808,9877.571693
352.363715,38.285162,172.283227,9915.856854
352.366170,57.427742,133.998066,9877.571693
352.368625,114.855485,114.855485,9839.286531
352.371080,38.285162,38.285162,9762.716208
352.373536,172.283227,344.566454,9839.286531
352.375991,-19.142581,114.855485,9915.856854
352.378446,19.142581,172.283227,9858.429112
352.380901,38.285162,38.285162,9858.429112
352.383356,57.427742,133.998066,9934.999435
352.385811,76.570323,76.570323,9896.714274
352.388267,191.425808,229.710970,9762.716208
352.390722,114.855485,172.283227,9801.001370
352.393177,76.570323,229.710970,9820.143950
352.395632,57.427742,57.427742,9896.714274
352.398087,76.570323,172.283227,9877.571693
352.400542,57.427742,76.570323,9858.429112
352.402998,114.855485,191.425808,9877.571693
352.405453,19.142581,95.712904,9877.571693
352.407908,114.855485,210.568389,9762.716208
352.410363,57.427742,114.855485,9820.143950
352.412818,114.855485,210.568389,9934.999435
352.415273,19.142581,172.283227,9858.429112
352.417729,57.427742,114.855485,9801.001370
352.420203,19.142581,172.283227,9781.858789
352.422677,38.285162,153.140646,9915.856854
352.425152,38.285162,133.998066,9858.429112
352.427626,210.568389,191.425808,9801.001370
352.430101,-76.570323,133.998066,9762.716208
352.432575,76.570323,248.853550,9992.427178
352.435050,-19.142581,38.285162,9858.429112
352.437524,172.283227,114.855485,9915.856854
352.439999,76.570323,76.570323,9896.714274
352.442473,114.855485,172.283227,9877.571693
352.444947,38.285162,172.283227,9724.431046
352.447422,210.568389,248.853550,9858.429112
352.449896,38.285162,76.570323,9762.716208
352.452371,57.427742,153.140646,10011.569758
352.454845,19.142581,153.140646,9801.001370
352.457320,76.570323,191.425808,9858.429112
352.459794,38.285162,210.568389,9667.003304
352.462269,172.283227,210.568389,9973.284597
352.464743,-0.000000,153.140646,9896.714274
352.467217,19.142581,133.998066,9801.001370
352.469692,57.427742,306.281293,9781.858789
352.472166,76.570323,248.853550,9973.284597
352.474641,76.570323,191.425808,9820.143950
352.477115,153.140646,57.427742,9896.714274
352.479590,19.142581,76.570323,9781.858789
352.482064,76.570323,76.570323,9954.142016
352.484539,19.142581,248.853550,9896.714274
352.487013,57.427742,229.710970,9820.143950
352.489487,57.427742,325.423874,9762.716208
352.491962,114.855485,172.283227,9992.427178
352.494436,19.142581,133.998066,9801.001370
352.496911,95.712904,76.570323,9973.284597
352.499385,38.285162,76.570323,9934.999435
352.501860,57.427742,172.283227,9973.284597
352.504334,-19.142581,267.996131,9858.429112
352.506808,76.570323,153.140646,9820.143950
352.509283,76.570323,229.710970,9820.143950
352.511757,76.570323,76.570323,9915.856854
352.514232,38.285162,172.283227,9724.431046
352.516706,114.855485,153.140646,9934.999435
352.519196,57.427742,133.998066,9877.571693
352.521686,76.570323,76.570323,10030.712339
352.524176,38.285162,267.996131,9820.143950
352.526665,19.142581,133.998066,9820.143950
352.529155,57.427742,306.281293,9781.858789
352.531645,114.855485,172.283227,10068.997501
352.534135,95.712904,172.283227,9762.716208
352.536625,38.285162,76.570323,9877.571693
352.539114,19.142581,153.140646,9896.714274
352.541604,76.570323,172.283227,9801.001370
352.544094,114.855485,229.710970,9762.716208
352.546584,76.570323,210.568389,9858.429112
352.549074,191.425808,421.136778,9839.286531
352.551563,76.570323,210.568389,9858.429112
352.554053,76.570323,229.710970,9877.571693
352.556543,38.285162,76.570323,9801.001370
352.559033,38.285162,76.570323,9877.571693
352.561522,57.427742,95.712904,9839.286531
352.564012,191.425808,210.568389,9839.286531
352.566502,38.285162,229.710970,9705.288466
352.568992,133.998066,267.996131,9858.429112
352.571482,19.142581,287.138712,9877.571693
352.573971,114.855485,133.998066,9762.716208
352.576461,95.712904,38.285162,9896.714274
352.578951,19.142581,57.427742,9934.999435
352.581441,95.712904,95.712904,9781.858789
352.583931,172.283227,248.853550,9743.573627
352.586420,76.570323,153.140646,9762.716208
352.588910,95.712904,210.568389,9877.571693
352.591400,19.142581,133.998066,9839.286531
352.593890,76.570323,172.283227,9820.143950
352.596380,76.570323,114.855485,9762.716208
352.598869,153.140646,95.712904,9896.714274
352.601359,57.427742,95.712904,9896.714274
352.603849,172.283227,172.283227,9667.003304
352.606339,76.570323,229.710970,9762.716208
352.608828,133.998066,267.996131,10011.569758
352.611318,38.285162,210.568389,9896.714274
352.613808,19.142581,153.140646,9801.001370
352.616298,57.427742,57.427742,9781.858789
352.618799,76.570323,-38.285162,9973.284597
352.621301,57.427742,95.712904,9896.714274
352.623803,133.998066,114.855485,9762.716208
352.626304,-19.142581,267.996131,9781.858789
352.628806,114.855485,229.710970,9896.714274
352.631308,95.712904,133.998066,9820.143950
352.633809,114.855485,76.570323,9992.427178
352.636311,38.285162,76.570323,9877.571693
352.638813,38.285162,114.855485,9915.856854
352.641314,-38.285162,248.853550,9781.858789
352.643816,114.855485,172.283227,9762.716208
352.646318,76.570323,229.710970,9858.429112
352.648819,-19.142581,210.568389,9973.284597
352.651321,114.855485,172.283227,9762.716208
352.653822,95.712904,57.427742,9896.714274
352.656324,38.285162,57.427742,9820.143950
352.658826,38.285162,76.570323,9801.001370
352.661327,19.142581,153.140646,9896.714274
352.663829,133.998066,210.568389,9801.001370
352.666331,114.855485,287.138712,9858.429112
352.668832,57.427742,191.425808,10049.854920
352.671334,114.855485,153.140646,9743.573627
352.673836,76.570323,114.855485,9877.571693
352.676337,38.285162,172.283227,9858.429112
352.678839,57.427742,57.427742,9896.714274
352.681341,76.570323,210.568389,9877.571693
352.683842,38.285162,114.855485,9839.286531
352.686344,191.425808,440.279358,9801.001370
352.688846,76.570323,248.853550,9954.142016
352.691347,76.570323,172.283227,9762.716208
352.693849,76.570323,114.855485,9820.143950
352.696350,114.855485,210.568389,9877.571693
352.698852,133.998066,133.998066,9915.856854
352.701354,191.425808,229.710970,9820.143950
352.703855,57.427742,95.712904,9781.858789
