#time,accel_x,accel_y,accel_z
317.389804,76.570323,172.283227,9839.286531
317.392697,19.142581,133.998066,9896.714274
317.395589,38.285162,172.283227,9915.856854
317.398482,57.427742,191.425808,9877.571693
317.401374,57.427742,287.138712,9801.001370
317.404267,114.855485,229.710970,9858.429112
317.407159,76.570323,210.568389,9877.571693
317.410052,19.142581,153.140646,9781.858789
317.412944,76.570323,114.855485,9839.286531
317.415837,57.427742,95.712904,9762.716208
317.418730,57.427742,153.140646,9934.999435
317.421622,95.712904,76.570323,9973.284597
317.424515,19.142581,153.140646,9896.714274
317.427407,76.570323,325.423874,9839.286531
317.430300,95.712904,172.283227,9858.429112
317.433192,19.142581,57.427742,9686.145885
317.436085,153.140646,38.285162,9858.429112
317.438977,114.855485,0.000000,9839.286531
317.441870,38.285162,210.568389,9647.860723
317.444762,114.855485,306.281293,9781.858789
317.447655,19.142581,248.853550,9915.856854
317.450548,76.570323,210.568389,9839.286531
317.453440,153.140646,95.712904,10030.712339
317.456333,95.712904,57.427742,9954.142016
317.459225,153.140646,172.283227,9934.999435
317.461973,76.570323,210.568389,9877.571693
317.464720,57.427742,210.568389,9896.714274
317.467468,76.570323,153.140646,9934.999435
317.470215,19.142581,153.140646,9801.001370
317.472963,133.998066,191.425808,9839.286531
317.475710,-19.142581,133.998066,9762.716208
317.478458,153.140646,153.140646,9705.288466
317.481205,-0.000000,153.140646,9781.858789
317.483953,-95.712904,95.712904,9743.573627
317.486700,76.570323,210.568389,9820.143950
317.489448,76.570323,210.568389,9762.716208
317.492195,95.712904,191.425808,9762.716208
317.494943,114.855485,267.996131,9915.856854
317.497691,57.427742,191.425808,9934.999435
317.500438,133.998066,172.283227,9877.571693
317.503186,76.570323,210.568389,9877.571693
317.505933,95.712904,210.568389,9820.143950
317.508681,95.712904,153.140646,9858.429112
317.511428,95.712904,191.425808,9934.999435
317.514176,57.427742,153.140646,9934.999435
317.516923,-19.142581,153.140646,9781.858789
317.519671,114.855485,287.138712,9781.858789
317.522418,19.142581,191.425808,9724.431046
317.525166,76.570323,248.853550,9724.431046
317.527913,19.142581,153.140646,9781.858789
317.530661,76.570323,153.140646,9877.571693
317.533408,76.570323,229.710970,9801.001370
317.536156,-19.142581,210.568389,9915.856854
317.538903,57.427742,248.853550,9743.573627
317.541651,19.142581,153.140646,9858.429112
317.544398,19.142581,172.283227,9858.429112
317.547146,76.570323,172.283227,9820.143950
317.549894,76.570323,172.283227,9820.143950
317.552641,76.570323,172.283227,9877.571693
317.555389,76.570323,114.855485,9858.429112
317.558136,57.427742,210.568389,9934.999435
317.560884,153.140646,114.855485,9820.143950
317.563631,76.570323,153.140646,9820.143950
317.566379,95.712904,191.425808,9858.429112
317.569126,114.855485,172.283227,9820.143950
317.571787,95.712904,210.568389,9877.571693
317.574448,57.427742,210.568389,9934.999435
317.577109,57.427742,153.140646,9934.999435
317.579770,76.570323,191.425808,9858.429112
317.582431,19.142581,153.140646,9858.429112
317.585092,76.570323,172.283227,9858.429112
317.587753,19.142581,153.140646,9781.858789
317.590414,114.855485,114.855485,9820.143950
317.593075,57.427742,95.712904,9801.001370
317.595736,-19.142581,114.855485,9724.431046
317.598397,19.142581,172.283227,9781.858789
317.601058,57.427742,95.712904,9781.858789
317.603719,38.285162,76.570323,9858.429112
317.606380,-19.142581,133.998066,9820.143950
317.609041,95.712904,95.712904,9801.001370
317.611702,95.712904,114.855485,9896.714274
317.614363,114.855485,114.855485,9877.571693
317.617024,95.712904,172.283227,9858.429112
317.619685,38.285162,267.996131,9762.716208
317.622346,57.427742,363.709035,9801.001370
317.625007,153.140646,248.853550,9839.286531
317.627668,76.570323,76.570323,9954.142016
317.630329,76.570323,-38.285162,10011.569758
317.632990,114.855485,76.570323,10011.569758
317.635651,76.570323,229.710970,9820.143950
317.638312,57.427742,287.138712,9839.286531
317.640973,57.427742,344.566454,9896.714274
317.643634,-57.427742,248.853550,9801.001370
317.646295,57.427742,248.853550,9762.716208
317.648956,19.142581,76.570323,9724.431046
317.651617,114.855485,76.570323,9724.431046
317.654278,95.712904,95.712904,9858.429112
317.656939,-19.142581,95.712904,9743.573627
317.659600,76.570323,229.710970,9839.286531
317.662261,57.427742,287.138712,9839.286531
317.664922,95.712904,306.281293,9896.714274
317.667583,19.142581,287.138712,9934.999435
317.670244,57.427742,133.998066,9954.142016
317.672905,57.427742,133.998066,9877.571693
317.675566,95.712904,95.712904,9896.714274
317.678171,133.998066,210.568389,9877.571693
317.680776,172.283227,306.281293,9820.143950
317.683381,172.283227,287.138712,9781.858789
317.685987,38.285162,172.283227,10011.569758
317.688592,57.427742,153.140646,9954.142016
317.691197,38.285162,172.283227,9686.145885
317.693802,76.570323,172.283227,9820.143950
317.696408,191.425808,153.140646,9705.288466
317.699013,76.570323,248.853550,9609.575562
317.701618,38.285162,172.283227,9724.431046
317.704223,38.285162,114.855485,9992.427178
317.706828,-0.000000,114.855485,9934.999435
317.709434,-57.427742,153.140646,9820.143950
317.712039,57.427742,172.283227,9954.142016
317.714644,76.570323,114.855485,9743.573627
317.717249,57.427742,95.712904,9590.432981
317.719855,19.142581,210.568389,9820.143950
317.722460,114.855485,76.570323,9915.856854
317.725065,57.427742,287.138712,9858.429112
317.727670,95.712904,325.423874,9858.429112
317.730275,95.712904,191.425808,9915.856854
317.732881,95.712904,153.140646,9858.429112
317.735486,153.140646,95.712904,9820.143950
317.738091,95.712904,133.998066,10049.854920
317.740696,114.855485,248.853550,9934.999435
317.743301,19.142581,267.996131,9801.001370
317.745907,76.570323,287.138712,9839.286531
317.748512,76.570323,114.855485,9801.001370
317.751117,76.570323,95.712904,9762.716208
317.753722,76.570323,114.855485,9877.571693
317.756328,114.855485,133.998066,9973.284597
317.758933,57.427742,248.853550,9934.999435
317.761538,-19.142581,210.568389,9839.286531
317.764143,95.712904,172.283227,9877.571693
317.766748,95.712904,114.855485,9743.573627
317.769354,76.570323,114.855485,9762.716208
317.771959,38.285162,153.140646,9934.999435
317.774564,57.427742,114.855485,9839.286531
317.777169,19.142581,133.998066,9839.286531
317.779775,153.140646,172.283227,9954.142016
317.782137,153.140646,133.998066,9877.571693
317.784500,133.998066,153.140646,9762.716208
317.786863,38.285162,191.425808,9915.856854
317.789225,57.427742,191.425808,9934.999435
317.791588,57.427742,248.853550,9877.571693
317.793951,172.283227,153.140646,9915.856854
317.796314,153.140646,114.855485,9896.714274
317.798676,114.855485,76.570323,9705.288466
317.801039,-0.000000,210.568389,9762.716208
317.803402,76.570323,114.855485,9877.571693
317.805764,57.427742,76.570323,9896.714274
317.808127,-19.142581,76.570323,9762.716208
317.810490,114.855485,153.140646,9801.001370
317.812853,76.570323,114.855485,9762.716208
317.815215,19.142581,210.568389,9724.431046
317.817578,19.142581,114.855485,9820.143950
317.819941,76.570323,114.855485,9877.571693
317.822303,76.570323,210.568389,9762.716208
317.824666,57.427742,191.425808,9743.573627
317.827029,133.998066,229.710970,9858.429112
317.829392,114.855485,133.998066,9877.571693
317.831754,19.142581,133.998066,9801.001370
317.834117,114.855485,153.140646,9973.284597
317.836480,19.142581,114.855485,9992.427178
317.838842,-57.427742,306.281293,9858.429112
317.841205,114.855485,191.425808,9934.999435
317.843568,95.712904,172.283227,9839.286531
317.845931,95.712904,133.998066,9705.288466
317.848293,19.142581,133.998066,9839.286531
317.850656,38.285162,210.568389,9915.856854
317.853019,-0.000000,172.283227,9839.286531
317.855381,38.285162,133.998066,9934.999435
317.857744,57.427742,172.283227,9934.999435
317.860107,76.570323,229.710970,9858.429112
317.862470,76.570323,172.283227,9762.716208
317.864832,57.427742,95.712904,9896.714274
317.867195,76.570323,153.140646,9877.571693
317.869558,114.855485,229.710970,9820.143950
317.871920,38.285162,210.568389,9801.001370
317.874283,95.712904,210.568389,9877.571693
317.876712,57.427742,114.855485,9801.001370
317.879141,19.142581,153.140646,9896.714274
317.881570,76.570323,133.998066,10030.712339
317.883999,-0.000000,229.710970,9896.714274
317.886427,76.570323,229.710970,9877.571693
317.888856,57.427742,229.710970,9801.001370
317.891285,172.283227,133.998066,9858.429112
317.893714,172.283227,76.570323,9762.716208
317.896143,114.855485,114.855485,9877.571693
317.898572,38.285162,153.140646,9954.142016
317.901001,-57.427742,153.140646,9934.999435
317.903430,-19.142581,248.853550,9896.714274
317.905858,38.285162,210.568389,9915.856854
317.908287,114.855485,210.568389,9762.716208
317.910716,76.570323,210.568389,9820.143950
317.913145,76.570323,114.855485,9820.143950
317.915574,76.570323,153.140646,9877.571693
317.918003,-19.142581,191.425808,9801.001370
317.920432,76.570323,210.568389,9820.143950
317.922861,133.998066,191.425808,9877.571693
317.925289,114.855485,153.140646,9820.143950
317.927718,38.285162,76.570323,9820.143950
317.930147,76.570323,76.570323,9915.856854
317.932576,57.427742,172.283227,9915.856854
317.935005,76.570323,172.283227,9820.143950
317.937434,95.712904,114.855485,9896.714274
317.939863,114.855485,172.283227,9743.573627
317.942292,19.142581,133.998066,9781.858789
317.944720,114.855485,114.855485,10068.997501
317.947149,153.140646,133.998066,9934.999435
317.949578,19.142581,210.568389,9839.286531
317.952007,95.712904,229.710970,9820.143950
317.954436,172.283227,114.855485,9896.714274
317.956865,114.855485,76.570323,9724.431046
317.959294,76.570323,114.855485,9820.143950
317.961723,19.142581,95.712904,9973.284597
317.964151,76.570323,114.855485,9801.001370
317.966580,76.570323,248.853550,9858.429112
317.969009,38.285162,210.568389,9915.856854
317.971438,153.140646,210.568389,9686.145885
317.973905,76.570323,172.283227,9820.143950
317.976371,114.855485,172.283227,9877.571693
317.978838,57.427742,95.712904,9896.714274
317.981304,114.855485,153.140646,9934.999435
317.983771,133.998066,210.568389,9877.571693
317.986237,133.998066,210.568389,9839.286531
317.988704,114.855485,114.855485,9762.716208
317.991171,19.142581,191.425808,9801.001370
317.993637,153.140646,172.283227,9954.142016
317.996104,76.570323,114.855485,9877.571693
317.998570,57.427742,287.138712,9839.286531
318.001037,95.712904,172.283227,9801.001370
318.003503,133.998066,153.140646,9820.143950
318.005970,133.998066,133.998066,9705.288466
318.008436,133.998066,114.855485,9858.429112
318.010903,76.570323,172.283227,9839.286531
318.013370,19.142581,210.568389,9762.716208
318.015836,76.570323,229.710970,9877.571693
318.018303,114.855485,133.998066,9934.999435
318.020769,133.998066,114.855485,9877.571693
318.023236,76.570323,210.568389,9762.716208
318.025702,38.285162,114.855485,9915.856854
318.028169,76.570323,210.568389,9858.429112
318.030635,76.570323,114.855485,9839.286531
318.033102,114.855485,229.710970,9877.571693
318.035569,114.855485,114.855485,9762.716208
318.038035,19.142581,210.568389,9801.001370
318.040502,114.855485,172.283227,9877.571693
318.042968,38.285162,191.425808,9915.856854
318.045435,19.142581,153.140646,9896.714274
318.047901,19.142581,153.140646,9839.286531
318.050368,76.570323,172.283227,9820.143950
318.052834,114.855485,210.568389,9877.571693
318.055301,114.855485,210.568389,9762.716208
318.057768,38.285162,76.570323,9820.143950
318.060234,38.285162,191.425808,9877.571693
318.062701,19.142581,153.140646,9839.286531
318.065167,95.712904,114.855485,9839.286531
318.067634,153.140646,133.998066,9877.571693
318.070100,153.140646,153.140646,9705.288466
318.072591,57.427742,95.712904,9801.001370
318.075082,57.427742,153.140646,9877.571693
318.077573,76.570323,210.568389,9820.143950
318.080063,76.570323,191.425808,9820.143950
318.082554,114.855485,172.283227,9839.286531
318.085045,133.998066,114.855485,9820.143950
318.087536,76.570323,210.568389,9762.716208
318.090026,95.712904,172.283227,9934.999435
318.092517,38.285162,172.283227,10011.569758
318.095008,-57.427742,229.710970,9915.856854
318.097499,19.142581,191.425808,9781.858789
318.099989,133.998066,114.855485,9877.571693
318.102480,95.712904,172.283227,9858.429112
318.104971,57.427742,133.998066,9686.145885
318.107462,57.427742,95.712904,9896.714274
318.109952,76.570323,172.283227,9820.143950
318.112443,19.142581,229.710970,9781.858789
318.114934,19.142581,191.425808,9896.714274
318.117425,114.855485,229.710970,9820.143950
318.119915,38.285162,210.568389,9743.573627
318.122406,114.855485,210.568389,9858.429112
318.124897,38.285162,76.570323,9820.143950
318.127388,19.142581,153.140646,9781.858789
318.129878,19.142581,248.853550,9896.714274
318.132369,76.570323,172.283227,9877.571693
318.134860,114.855485,191.425808,9762.716208
318.137351,19.142581,191.425808,9801.001370
318.139841,57.427742,133.998066,9934.999435
318.142332,19.142581,191.425808,9839.286531
318.144823,19.142581,172.283227,9896.714274
318.147314,114.855485,172.283227,9877.571693
318.149804,133.998066,210.568389,9877.571693
318.152295,114.855485,172.283227,9762.716208
318.154786,76.570323,210.568389,9858.429112
318.157277,114.855485,76.570323,10011.569758
318.159767,19.142581,133.998066,9896.714274
318.162258,19.142581,229.710970,9934.999435
318.164749,38.285162,172.283227,9915.856854
318.167240,95.712904,191.425808,9743.573627
318.169730,76.570323,114.855485,9820.143950
318.172235,133.998066,172.283227,9877.571693
318.174739,38.285162,76.570323,9858.429112
318.177244,19.142581,153.140646,9858.429112
318.179748,38.285162,267.996131,9839.286531
318.182253,38.285162,267.996131,9820.143950
318.184757,57.427742,114.855485,9781.858789
318.187262,114.855485,172.283227,9858.429112
318.189767,57.427742,133.998066,9954.142016
318.192271,19.142581,95.712904,9934.999435
318.194776,19.142581,191.425808,9896.714274
318.197280,57.427742,114.855485,9896.714274
318.199785,114.855485,287.138712,9801.001370
318.202289,19.142581,133.998066,9781.858789
318.204794,38.285162,76.570323,9877.571693
318.207298,76.570323,76.570323,9915.856854
318.209803,19.142581,248.853550,9801.001370
318.212307,19.142581,248.853550,9896.714274
318.214812,114.855485,172.283227,9820.143950
318.217316,95.712904,191.425808,9743.573627
318.219821,95.712904,229.710970,9839.286531
318.222325,57.427742,191.425808,9934.999435
318.224830,76.570323,229.710970,9858.429112
318.227335,19.142581,248.853550,9801.001370
318.229839,57.427742,229.710970,9896.714274
318.232344,114.855485,191.425808,9762.716208
318.234848,76.570323,76.570323,9743.573627
318.237353,57.427742,153.140646,9934.999435
318.239857,38.285162,114.855485,9915.856854
318.242362,19.142581,133.998066,9896.714274
318.244866,76.570323,191.425808,9877.571693
318.247371,95.712904,172.283227,9877.571693
318.249875,114.855485,229.710970,9820.143950
318.252380,19.142581,153.140646,9858.429112
318.254884,95.712904,153.140646,9877.571693
318.257389,76.570323,229.710970,9877.571693
318.259894,19.142581,210.568389,9762.716208
318.262398,114.855485,229.710970,9858.429112
318.264903,95.712904,114.855485,9762.716208
318.267407,114.855485,133.998066,9686.145885
318.269912,133.998066,229.710970,9877.571693
318.272424,57.427742,133.998066,9915.856854
318.274937,38.285162,172.283227,9915.856854
318.277450,-0.000000,210.568389,9915.856854
318.279963,-19.142581,248.853550,9801.001370
318.282475,114.855485,114.855485,9820.143950
318.284988,114.855485,133.998066,9743.573627
318.287501,95.712904,114.855485,9839.286531
318.290014,114.855485,114.855485,9877.571693
318.292526,-0.000000,210.568389,9858.429112
318.295039,76.570323,325.423874,9973.284597
318.297552,38.285162,133.998066,9877.571693
318.300065,114.855485,191.425808,9877.571693
318.302577,76.570323,114.855485,9858.429112
318.305090,76.570323,76.570323,9915.856854
318.307603,57.427742,229.710970,9801.001370
318.310115,19.142581,172.283227,9801.001370
318.312628,114.855485,229.710970,9801.001370
318.315141,95.712904,248.853550,9743.573627
318.317654,57.427742,76.570323,9839.286531
318.320166,95.712904,248.853550,9954.142016
318.322679,76.570323,114.855485,9839.286531
318.325192,19.142581,133.998066,9896.714274
318.327705,76.570323,210.568389,9839.286531
318.330217,133.998066,114.855485,9839.286531
318.332730,95.712904,153.140646,9743.573627
318.335243,76.570323,76.570323,9724.431046
318.337756,114.855485,133.998066,9915.856854
318.340268,114.855485,153.140646,9839.286531
318.342781,76.570323,191.425808,9762.716208
318.345294,95.712904,248.853550,9877.571693
318.347807,57.427742,133.998066,9762.716208
318.350319,38.285162,76.570323,9762.716208
318.352832,95.712904,114.855485,9896.714274
318.355345,38.285162,210.568389,9915.856854
318.357858,-0.000000,248.853550,9896.714274
318.360370,19.142581,153.140646,9896.714274
318.362883,153.140646,153.140646,9934.999435
318.365396,210.568389,133.998066,9820.143950
318.367909,133.998066,153.140646,9839.286531
318.370421,95.712904,210.568389,9877.571693
318.372939,76.570323,153.140646,9858.429112
318.375456,76.570323,210.568389,9839.286531
318.377973,95.712904,133.998066,9934.999435
318.380491,76.570323,114.855485,9820.143950
318.383008,57.427742,114.855485,9801.001370
318.385526,114.855485,114.855485,9877.571693
318.388043,38.285162,114.855485,9915.856854
318.390560,19.142581,248.853550,9858.429112
318.393078,76.570323,210.568389,9858.429112
318.395595,76.570323,153.140646,9820.143950
318.398113,133.998066,114.855485,9762.716208
318.400630,57.427742,153.140646,9743.573627
318.403147,114.855485,172.283227,9877.571693
318.405665,76.570323,114.855485,9877.571693
318.408182,114.855485,153.140646,9934.999435
318.410700,133.998066,210.568389,9839.286531
318.413217,76.570323,210.568389,9877.571693
318.415734,95.712904,287.138712,9781.858789
318.418252,133.998066,210.568389,9762.716208
318.420769,76.570323,133.998066,9973.284597
318.423287,38.285162,153.140646,9915.856854
318.425804,76.570323,172.283227,9781.858789
318.428321,76.570323,210.568389,9858.429112
318.430839,114.855485,172.283227,9762.716208
318.433356,172.283227,210.568389,9762.716208
318.435874,57.427742,95.712904,9896.714274
318.438391,76.570323,172.283227,9877.571693
318.440908,57.427742,114.855485,9896.714274
318.443426,19.142581,191.425808,9858.429112
318.445943,57.427742,191.425808,9858.429112
318.448461,95.712904,95.712904,9781.858789
318.450978,76.570323,210.568389,9820.143950
318.453495,114.855485,76.570323,9973.284597
318.456013,-57.427742,153.140646,9781.858789
318.458530,19.142581,210.568389,9801.001370
318.461048,95.712904,191.425808,9934.999435
318.463565,76.570323,172.283227,9820.143950
318.466082,57.427742,229.710970,9896.714274
318.468600,95.712904,133.998066,9934.999435
318.471117,57.427742,114.855485,9896.714274
318.473637,-38.285162,191.425808,9858.429112
318.476156,19.142581,153.140646,9801.001370
318.478675,133.998066,153.140646,9762.716208
318.481195,95.712904,210.568389,9743.573627
318.483714,191.425808,153.140646,9858.429112
318.486234,-0.000000,248.853550,9839.286531
318.488753,19.142581,153.140646,9801.001370
318.491272,19.142581,153.140646,9896.714274
318.493792,76.570323,172.283227,9801.001370
318.496311,191.425808,133.998066,9896.714274
318.498830,114.855485,210.568389,9743.573627
318.501350,19.142581,133.998066,9896.714274
318.503869,38.285162,76.570323,9839.286531
318.506389,57.427742,210.568389,9896.714274
318.508908,76.570323,114.855485,9839.286531
318.511427,19.142581,153.140646,9820.143950
318.513947,191.425808,210.568389,9762.716208
318.516466,95.712904,114.855485,9801.001370
318.518985,76.570323,191.425808,9877.571693
318.521505,153.140646,248.853550,9973.284597
318.524024,57.427742,76.570323,9820.143950
318.526544,38.285162,133.998066,9762.716208
318.529063,153.140646,153.140646,9858.429112
318.531582,57.427742,153.140646,9743.573627
318.534102,95.712904,95.712904,9896.714274
318.536621,38.285162,76.570323,9877.571693
318.539141,-0.000000,153.140646,9801.001370
318.541660,76.570323,191.425808,9858.429112
318.544179,76.570323,210.568389,9858.429112
318.546699,95.712904,114.855485,9820.143950
318.549218,76.570323,172.283227,9801.001370
318.551737,38.285162,76.570323,9839.286531
318.554257,-0.000000,114.855485,9934.999435
318.556776,-0.000000,95.712904,9877.571693
318.559296,95.712904,210.568389,9858.429112
318.561815,57.427742,153.140646,9877.571693
318.564334,57.427742,133.998066,9743.573627
318.566854,191.425808,153.140646,9839.286531
318.569373,57.427742,133.998066,9934.999435
318.571892,-0.000000,133.998066,9781.858789
318.574413,57.427742,210.568389,9934.999435
318.576933,76.570323,210.568389,9858.429112
318.579453,133.998066,210.568389,9762.716208
318.581974,76.570323,153.140646,9820.143950
318.584494,95.712904,114.855485,9877.571693
318.587014,57.427742,153.140646,9934.999435
318.589535,-19.142581,133.998066,9820.143950
318.592055,76.570323,114.855485,9858.429112
318.594575,95.712904,210.568389,9858.429112
318.597095,76.570323,172.283227,9762.716208
318.599616,114.855485,133.998066,9724.431046
318.602136,95.712904,153.140646,9934.999435
318.604656,38.285162,133.998066,9858.429112
318.607177,-38.285162,267.996131,9877.571693
318.609697,76.570323,229.710970,9858.429112
318.612217,76.570323,172.283227,9858.429112
318.614737,153.140646,172.283227,9762.716208
318.617258,57.427742,172.283227,9934.999435
318.619778,-0.000000,153.140646,9781.858789
318.622298,-19.142581,267.996131,9858.429112
318.624819,57.427742,153.140646,9934.999435
318.627339,19.142581,133.998066,9896.714274
318.629859,191.425808,153.140646,9801.001370
318.632380,76.570323,229.710970,9762.716208
318.634900,114.855485,172.283227,9801.001370
318.637420,38.285162,153.140646,9934.999435
318.639940,-0.000000,172.283227,9915.856854
318.642461,-0.000000,191.425808,9839.286531
318.644981,76.570323,172.283227,9839.286531
318.647501,76.570323,229.710970,9762.716208
318.650022,76.570323,210.568389,9820.143950
318.652542,57.427742,153.140646,9934.999435
318.655062,76.570323,133.998066,9915.856854
318.657582,38.285162,114.855485,9915.856854
318.660103,57.427742,210.568389,9934.999435
318.662623,114.855485,210.568389,9820.143950
318.665143,153.140646,191.425808,9705.288466
318.667664,76.570323,114.855485,9839.286531
318.670184,57.427742,133.998066,9934.999435
318.672704,38.285162,172.283227,9915.856854
318.675225,76.570323,287.138712,9858.429112
318.677745,95.712904,172.283227,9877.571693
318.680266,57.427742,133.998066,9820.143950
318.682786,114.855485,95.712904,9801.001370
318.685307,76.570323,57.427742,9973.284597
318.687827,57.427742,95.712904,9781.858789
318.690348,19.142581,248.853550,9896.714274
318.692868,38.285162,306.281293,9820.143950
318.695389,38.285162,172.283227,9724.431046
318.697909,76.570323,114.855485,9858.429112
318.700430,76.570323,76.570323,9915.856854
318.702950,76.570323,133.998066,9896.714274
318.705471,57.427742,191.425808,9954.142016
318.707992,38.285162,267.996131,9762.716208
318.710512,76.570323,229.710970,9801.001370
318.713033,76.570323,210.568389,9877.571693
318.715553,153.140646,95.712904,9839.286531
318.718074,-19.142581,76.570323,9858.429112
318.720594,57.427742,172.283227,9992.427178
318.723115,76.570323,191.425808,9820.143950
318.725635,76.570323,191.425808,9820.143950
318.728156,153.140646,210.568389,9762.716208
318.730676,95.712904,133.998066,9647.860723
318.733197,57.427742,76.570323,9762.716208
318.735717,76.570323,76.570323,9954.142016
318.738238,38.285162,172.283227,9839.286531
318.740758,-0.000000,210.568389,9915.856854
318.743279,76.570323,267.996131,9896.714274
318.745799,172.283227,267.996131,9858.429112
318.748320,95.712904,95.712904,9801.001370
318.750840,76.570323,114.855485,9877.571693
318.753361,19.142581,95.712904,9934.999435
318.755881,-38.285162,133.998066,9801.001370
318.758402,19.142581,325.423874,9954.142016
318.760922,114.855485,229.710970,9820.143950
318.763443,76.570323,210.568389,9762.716208
318.765964,153.140646,114.855485,9781.858789
318.768484,95.712904,95.712904,9839.286531
318.771005,19.142581,133.998066,9839.286531
318.773525,95.712904,153.140646,10011.569758
318.776038,19.142581,191.425808,9839.286531
318.778559,95.712904,287.138712,9781.858789
318.781079,133.998066,210.568389,9762.716208
318.783599,114.855485,95.712904,9801.001370
318.786120,57.427742,153.140646,9934.999435
318.788640,76.570323,76.570323,9915.856854
318.791160,19.142581,229.710970,9934.999435
318.793681,38.285162,248.853550,9820.143950
318.796201,38.285162,172.283227,9705.288466
318.798721,76.570323,172.283227,9877.571693
318.801241,19.142581,95.712904,9934.999435
318.803762,19.142581,172.283227,9781.858789
318.806282,76.570323,172.283227,9820.143950
318.808802,76.570323,229.710970,9839.286531
318.811323,153.140646,229.710970,9839.286531
318.813843,19.142581,191.425808,9801.001370
318.816363,114.855485,95.712904,9839.286531
318.818883,57.427742,172.283227,9973.284597
318.821404,19.142581,133.998066,9820.143950
318.823924,19.142581,287.138712,9877.571693
318.826444,57.427742,229.710970,9896.714274
318.828965,76.570323,76.570323,9686.145885
318.831485,76.570323,172.283227,9801.001370
318.834005,76.570323,76.570323,9915.856854
318.836525,38.285162,114.855485,9915.856854
318.839046,19.142581,210.568389,9839.286531
318.841566,57.427742,287.138712,9839.286531
318.844086,133.998066,191.425808,9762.716208
318.846607,57.427742,95.712904,9781.858789
318.849127,95.712904,114.855485,9896.714274
318.851647,57.427742,133.998066,9934.999435
318.854168,19.142581,191.425808,9858.429112
318.856688,76.570323,210.568389,9839.286531
318.859208,57.427742,191.425808,9934.999435
318.861728,95.712904,191.425808,9705.288466
318.864249,133.998066,153.140646,9877.571693
318.866769,19.142581,210.568389,9896.714274
318.869289,114.855485,114.855485,9858.429112
318.871810,38.285162,114.855485,9896.714274
318.874330,19.142581,210.568389,9934.999435
318.876852,95.712904,210.568389,9820.143950
318.879373,114.855485,95.712904,9858.429112
318.881895,114.855485,114.855485,9820.143950
318.884417,95.712904,153.140646,9934.999435
318.886938,19.142581,114.855485,9820.143950
318.889460,57.427742,95.712904,9896.714274
318.891982,76.570323,76.570323,9915.856854
318.894504,95.712904,172.283227,9762.716208
318.897025,95.712904,210.568389,9820.143950
318.899547,38.285162,248.853550,9858.429112
318.902069,38.285162,76.570323,9839.286531
318.904591,-0.000000,191.425808,9820.143950
318.907112,19.142581,153.140646,9896.714274
318.909634,76.570323,172.283227,9858.429112
318.912156,57.427742,172.283227,9705.288466
318.914677,95.712904,210.568389,9839.286531
318.917199,57.427742,133.998066,9934.999435
318.919721,38.285162,114.855485,9915.856854
318.922243,19.142581,153.140646,9896.714274
318.924764,57.427742,191.425808,9877.571693
318.927286,133.998066,210.568389,9743.573627
318.929808,-0.000000,153.140646,9781.858789
318.932329,95.712904,114.855485,9934.999435
318.934851,38.285162,76.570323,9877.571693
318.937373,38.285162,153.140646,9915.856854
318.939895,-0.000000,191.425808,9858.429112
318.942416,57.427742,287.138712,9820.143950
318.944938,19.142581,210.568389,9781.858789
318.947460,114.855485,114.855485,9839.286531
318.949982,57.427742,95.712904,9896.714274
318.952503,38.285162,76.570323,9858.429112
318.955025,19.142581,210.568389,9896.714274
318.957547,57.427742,191.425808,9934.999435
318.960068,95.712904,210.568389,9820.143950
318.962590,114.855485,210.568389,9762.716208
318.965112,172.283227,210.568389,9973.284597
318.967634,57.427742,114.855485,9839.286531
318.970155,-19.142581,76.570323,9762.716208
318.972677,76.570323,210.568389,9877.571693
318.975199,57.427742,153.140646,9934.999435
318.977650,133.998066,267.996131,9781.858789
318.980101,76.570323,172.283227,9801.001370
318.982552,38.285162,133.998066,9934.999435
318.985004,-19.142581,133.998066,9896.714274
318.987455,38.285162,133.998066,9877.571693
318.989906,76.570323,229.710970,9877.571693
318.992357,114.855485,248.853550,9743.573627
318.994808,114.855485,210.568389,9762.716208
318.997260,76.570323,172.283227,9820.143950
318.999711,76.570323,76.570323,9915.856854
319.002162,76.570323,114.855485,9839.286531
319.004613,76.570323,76.570323,9915.856854
319.007064,76.570323,191.425808,9839.286531
319.009516,95.712904,229.710970,9762.716208
319.011967,95.712904,210.568389,9762.716208
319.014418,57.427742,172.283227,9934.999435
319.016869,57.427742,133.998066,9934.999435
319.019321,-19.142581,133.998066,9858.429112
319.021772,76.570323,210.568389,9877.571693
319.024223,114.855485,210.568389,9762.716208
319.026674,133.998066,133.998066,9724.431046
319.029125,95.712904,210.568389,9839.286531
319.031577,19.142581,191.425808,9896.714274
319.034028,76.570323,210.568389,9877.571693
319.036479,95.712904,191.425808,9992.427178
319.038930,95.712904,114.855485,9839.286531
319.041381,76.570323,76.570323,9781.858789
319.043833,57.427742,133.998066,9686.145885
319.046284,114.855485,210.568389,9820.143950
319.048735,38.285162,172.283227,9915.856854
319.051186,-0.000000,229.710970,9934.999435
319.053637,-0.000000,287.138712,9877.571693
319.056089,57.427742,191.425808,9877.571693
319.058540,57.427742,57.427742,9781.858789
319.060991,76.570323,210.568389,9858.429112
319.063442,57.427742,114.855485,9858.429112
319.065893,19.142581,172.283227,9820.143950
319.068345,95.712904,229.710970,9839.286531
319.070796,38.285162,248.853550,9877.571693
319.073247,95.712904,114.855485,9820.143950
319.075717,76.570323,114.855485,9820.143950
319.078187,57.427742,95.712904,9896.714274
319.080657,57.427742,153.140646,9954.142016
319.083127,-0.000000,38.285162,9877.571693
319.085597,133.998066,172.283227,9820.143950
319.088067,133.998066,210.568389,9858.429112
319.090537,95.712904,95.712904,9858.429112
319.093007,153.140646,229.710970,9915.856854
319.095477,19.142581,172.283227,9877.571693
319.097947,19.142581,95.712904,9934.999435
319.100418,19.142581,153.140646,9839.286531
319.102888,76.570323,210.568389,9877.571693
319.105358,19.142581,172.283227,9801.001370
319.107828,114.855485,210.568389,9762.716208
319.110298,95.712904,191.425808,9839.286531
319.112768,38.285162,76.570323,9877.571693
319.115238,-57.427742,133.998066,9801.001370
319.117708,76.570323,172.283227,9858.429112
319.120178,19.142581,153.140646,9781.858789
319.122648,57.427742,153.140646,9743.573627
319.125118,57.427742,153.140646,9858.429112
319.127588,76.570323,172.283227,9877.571693
319.130058,95.712904,114.855485,9839.286531
319.132528,19.142581,172.283227,9896.714274
319.134998,57.427742,248.853550,9934.999435
319.137468,19.142581,191.425808,9801.001370
319.139938,76.570323,172.283227,9820.143950
319.142408,210.568389,153.140646,9801.001370
319.144878,133.998066,210.568389,9762.716208
319.147348,95.712904,114.855485,9839.286531
319.149818,38.285162,210.568389,9954.142016
319.152288,76.570323,191.425808,9762.716208
319.154758,114.855485,229.710970,9762.716208
319.157228,114.855485,172.283227,9858.429112
319.159698,76.570323,172.283227,9877.571693
319.162168,57.427742,191.425808,9973.284597
319.164639,-57.427742,133.998066,9858.429112
319.167109,-0.000000,248.853550,9801.001370
319.169579,76.570323,229.710970,9877.571693
319.172049,133.998066,153.140646,9781.858789
319.174534,114.855485,210.568389,9762.716208
319.177019,38.285162,114.855485,9915.856854
319.179505,-57.427742,114.855485,9896.714274
319.181990,57.427742,114.855485,9781.858789
319.184476,76.570323,210.568389,9877.571693
319.186961,114.855485,210.568389,9762.716208
319.189446,38.285162,114.855485,9686.145885
319.191932,133.998066,153.140646,9801.001370
319.194417,95.712904,133.998066,9973.284597
319.196903,38.285162,229.710970,9915.856854
319.199388,172.283227,248.853550,9934.999435
319.201874,95.712904,248.853550,9820.143950
319.204359,114.855485,172.283227,9820.143950
319.206844,95.712904,172.283227,9820.143950
319.209330,153.140646,210.568389,9973.284597
319.211815,76.570323,229.710970,9877.571693
319.214301,19.142581,267.996131,9839.286531
319.216786,38.285162,172.283227,9915.856854
319.219271,57.427742,191.425808,9762.716208
319.221757,76.570323,114.855485,9820.143950
319.224242,76.570323,114.855485,9877.571693
319.226728,76.570323,210.568389,9820.143950
319.229213,38.285162,210.568389,9915.856854
319.231698,76.570323,229.710970,9858.429112
319.234184,114.855485,287.138712,9820.143950
319.236669,76.570323,114.855485,9801.001370
319.239155,95.712904,95.712904,9801.001370
319.241640,38.285162,-38.285162,9820.143950
319.244125,38.285162,133.998066,9839.286531
319.246611,76.570323,325.423874,9915.856854
319.249096,153.140646,306.281293,9781.858789
319.251582,114.855485,229.710970,9781.858789
319.254067,95.712904,133.998066,9934.999435
319.256553,76.570323,-114.855485,9858.429112
319.259038,76.570323,-19.142581,9858.429112
319.261523,153.140646,172.283227,10011.569758
319.264009,38.285162,325.423874,9858.429112
319.266494,57.427742,363.709035,9801.001370
319.268980,19.142581,191.425808,9858.429112
319.271465,95.712904,19.142581,9954.142016
319.273963,114.855485,-19.142581,9820.143950
319.276461,-19.142581,76.570323,9820.143950
319.278959,95.712904,210.568389,9877.571693
319.281457,95.712904,287.138712,9762.716208
319.283955,19.142581,172.283227,9781.858789
319.286453,172.283227,210.568389,9877.571693
319.288951,19.142581,95.712904,9743.573627
319.291449,38.285162,76.570323,9820.143950
319.293948,-0.000000,229.710970,9915.856854
319.296446,-19.142581,114.855485,9877.571693
319.298944,76.570323,76.570323,9724.431046
319.301442,114.855485,229.710970,9801.001370
319.303940,95.712904,95.712904,9896.714274
319.306438,133.998066,153.140646,9877.571693
319.308936,57.427742,153.140646,9934.999435
319.311434,95.712904,191.425808,9992.427178
319.313932,38.285162,210.568389,9915.856854
319.316430,19.142581,172.283227,9781.858789
319.318928,114.855485,210.568389,9839.286531
319.321426,172.283227,76.570323,9801.001370
319.323924,76.570323,38.285162,9781.858789
319.326422,57.427742,287.138712,9858.429112
319.328920,57.427742,267.996131,9992.427178
319.331418,19.142581,248.853550,9839.286531
319.333917,76.570323,210.568389,9839.286531
319.336415,133.998066,114.855485,9877.571693
319.338913,172.283227,57.427742,9781.858789
319.341411,19.142581,133.998066,9781.858789
319.343909,95.712904,248.853550,9934.999435
319.346407,-0.000000,325.423874,9801.001370
319.348905,57.427742,287.138712,9781.858789
319.351403,76.570323,210.568389,9877.571693
319.353901,76.570323,76.570323,9915.856854
319.356399,57.427742,95.712904,9858.429112
319.358897,-0.000000,153.140646,9896.714274
319.361395,114.855485,325.423874,9915.856854
319.363893,114.855485,344.566454,9801.001370
319.366391,76.570323,306.281293,9743.573627
319.368889,133.998066,172.283227,9839.286531
319.371387,133.998066,76.570323,9915.856854
319.373895,-57.427742,95.712904,9781.858789
319.376402,172.283227,172.283227,9954.142016
319.378909,19.142581,344.566454,9934.999435
319.381416,19.142581,267.996131,9686.145885
319.383923,114.855485,287.138712,9858.429112
319.386430,114.855485,133.998066,9934.999435
319.388938,57.427742,95.712904,9839.286531
319.391445,19.142581,172.283227,9801.001370
319.393952,38.285162,229.710970,9915.856854
319.396459,76.570323,229.710970,9762.716208
319.398966,76.570323,210.568389,9762.716208
319.401473,191.425808,133.998066,9896.714274
319.403981,38.285162,76.570323,9762.716208
319.406488,38.285162,133.998066,9839.286531
319.408995,19.142581,248.853550,9896.714274
319.411502,95.712904,210.568389,9934.999435
319.414009,114.855485,210.568389,9858.429112
319.416516,76.570323,210.568389,9762.716208
319.419023,153.140646,95.712904,9896.714274
319.421531,95.712904,76.570323,9858.429112
319.424038,19.142581,210.568389,9839.286531
319.426545,57.427742,248.853550,9934.999435
319.429052,76.570323,229.710970,9820.143950
319.431559,76.570323,191.425808,9781.858789
319.434066,76.570323,153.140646,9839.286531
319.436574,133.998066,-19.142581,9858.429112
319.439081,57.427742,95.712904,9858.429112
319.441588,19.142581,210.568389,9858.429112
319.444095,57.427742,344.566454,9839.286531
319.446602,76.570323,191.425808,9801.001370
319.449109,153.140646,191.425808,9762.716208
319.451617,133.998066,38.285162,9781.858789
319.454124,57.427742,0.000000,9858.429112
319.456631,-19.142581,76.570323,9801.001370
319.459138,95.712904,191.425808,9934.999435
319.461645,76.570323,210.568389,9877.571693
319.464152,76.570323,210.568389,9839.286531
319.466660,153.140646,133.998066,9934.999435
319.469167,57.427742,95.712904,9896.714274
319.471674,38.285162,95.712904,9801.001370
319.474188,57.427742,95.712904,9915.856854
319.476703,38.285162,229.710970,9992.427178
319.479217,57.427742,325.423874,9820.143950
319.481731,38.285162,210.568389,9686.145885
319.484246,133.998066,153.140646,9877.571693
319.486760,191.425808,95.712904,9934.999435
319.489274,38.285162,38.285162,9877.571693
319.491789,38.285162,210.568389,9915.856854
319.494303,38.285162,267.996131,9877.571693
319.496817,57.427742,287.138712,9781.858789
319.499332,114.855485,172.283227,9762.716208
319.501846,114.855485,114.855485,9820.143950
319.504360,172.283227,38.285162,9801.001370
319.506875,57.427742,133.998066,9934.999435
319.509389,19.142581,229.710970,9934.999435
319.511903,38.285162,325.423874,9801.001370
319.514418,57.427742,229.710970,9781.858789
319.516932,95.712904,95.712904,9839.286531
319.519446,172.283227,-19.142581,9896.714274
319.521961,38.285162,76.570323,9877.571693
319.524475,-76.570323,267.996131,9877.571693
319.526989,38.285162,382.851616,9858.429112
319.529504,76.570323,287.138712,9762.716208
319.532018,76.570323,153.140646,9877.571693
319.534532,133.998066,57.427742,9915.856854
319.537047,57.427742,95.712904,9839.286531
319.539561,57.427742,114.855485,9801.001370
319.542075,76.570323,267.996131,9973.284597
319.544590,38.285162,325.423874,9801.001370
319.547104,38.285162,210.568389,9705.288466
319.549618,114.855485,229.710970,9839.286531
319.552133,153.140646,153.140646,9934.999435
319.554647,-19.142581,114.855485,9743.573627
319.557161,76.570323,229.710970,9877.571693
319.559676,19.142581,210.568389,9896.714274
319.562190,57.427742,191.425808,9743.573627
319.564704,76.570323,248.853550,9743.573627
319.567219,114.855485,133.998066,9877.571693
319.569733,95.712904,133.998066,9934.999435
319.572247,19.142581,191.425808,9801.001370
319.574767,57.427742,267.996131,9934.999435
319.577286,19.142581,363.709035,9839.286531
319.579806,38.285162,287.138712,9686.145885
319.582325,229.710970,133.998066,9820.143950
319.584845,133.998066,76.570323,9954.142016
319.587365,76.570323,114.855485,9801.001370
319.589884,19.142581,267.996131,9839.286531
319.592404,57.427742,191.425808,9934.999435
319.594923,38.285162,267.996131,9762.716208
319.597443,114.855485,114.855485,9858.429112
319.599962,95.712904,57.427742,9858.429112
319.602482,57.427742,38.285162,9781.858789
319.605001,38.285162,76.570323,9762.716208
319.607521,57.427742,191.425808,9973.284597
319.610041,57.427742,248.853550,9877.571693
319.612560,76.570323,210.568389,9743.573627
319.615080,57.427742,133.998066,9858.429112
319.617599,76.570323,19.142581,9915.856854
319.620119,57.427742,95.712904,9801.001370
319.622638,76.570323,210.568389,9820.143950
319.625158,114.855485,210.568389,9877.571693
319.627677,76.570323,229.710970,9762.716208
319.630197,114.855485,172.283227,9762.716208
319.632717,191.425808,57.427742,9934.999435
319.635236,95.712904,38.285162,9954.142016
319.637756,76.570323,76.570323,9724.431046
319.640275,133.998066,229.710970,9877.571693
319.642795,19.142581,191.425808,9801.001370
319.645314,57.427742,133.998066,9647.860723
319.647834,95.712904,57.427742,9839.286531
319.650353,57.427742,0.000000,9915.856854
319.652873,95.712904,95.712904,9781.858789
319.655392,19.142581,248.853550,9896.714274
319.657912,57.427742,153.140646,9992.427178
319.660432,38.285162,248.853550,9858.429112
319.662951,76.570323,172.283227,9743.573627
319.665471,95.712904,95.712904,9839.286531
319.667990,57.427742,57.427742,9801.001370
319.670510,95.712904,76.570323,9781.858789
319.673029,76.570323,191.425808,9877.571693
319.675553,76.570323,210.568389,9877.571693
319.678076,38.285162,267.996131,9762.716208
319.680599,133.998066,229.710970,9762.716208
319.683122,172.283227,133.998066,9934.999435
319.685646,95.712904,57.427742,9896.714274
319.688169,76.570323,114.855485,9820.143950
319.690692,19.142581,248.853550,9896.714274
319.693216,38.285162,363.709035,9762.716208
319.695739,38.285162,229.710970,9724.431046
319.698262,114.855485,229.710970,9820.143950
319.700786,57.427742,57.427742,9896.714274
319.703309,76.570323,114.855485,9858.429112
319.705832,38.285162,133.998066,9762.716208
319.708355,76.570323,191.425808,9858.429112
319.710879,57.427742,306.281293,9839.286531
319.713402,19.142581,248.853550,9781.858789
319.715925,133.998066,248.853550,9858.429112
319.718449,153.140646,153.140646,9877.571693
319.720972,57.427742,57.427742,9839.286531
319.723495,76.570323,210.568389,9877.571693
319.726018,57.427742,248.853550,9934.999435
319.728542,57.427742,191.425808,9686.145885
319.731065,19.142581,248.853550,9781.858789
319.733588,76.570323,210.568389,9858.429112
319.736112,114.855485,114.855485,9858.429112
319.738635,38.285162,153.140646,10030.712339
319.741158,38.285162,229.710970,9915.856854
319.743681,76.570323,229.710970,9820.143950
319.746205,19.142581,248.853550,9781.858789
319.748728,133.998066,153.140646,9762.716208
319.751251,172.283227,95.712904,9896.714274
319.753775,57.427742,114.855485,9839.286531
319.756298,57.427742,191.425808,9934.999435
319.758821,19.142581,229.710970,9954.142016
319.761345,-19.142581,248.853550,9762.716208
319.763868,57.427742,229.710970,9781.858789
319.766391,76.570323,153.140646,9801.001370
319.768914,114.855485,133.998066,9877.571693
319.771438,19.142581,133.998066,9801.001370
319.773961,19.142581,191.425808,9839.286531
319.776433,57.427742,248.853550,9934.999435
319.778907,38.285162,267.996131,9762.716208
319.781382,133.998066,114.855485,9858.429112
319.783856,133.998066,114.855485,9877.571693
319.786330,57.427742,95.712904,9801.001370
319.788804,57.427742,95.712904,9896.714274
319.791279,76.570323,172.283227,10049.854920
319.793753,19.142581,306.281293,9877.571693
319.796227,19.142581,229.710970,9820.143950
319.798702,133.998066,114.855485,9762.716208
319.801176,95.712904,38.285162,9839.286531
319.803650,19.142581,0.000000,9877.571693
319.806125,57.427742,133.998066,9954.142016
319.808599,57.427742,248.853550,9877.571693
319.811073,57.427742,248.853550,9686.145885
319.813547,172.283227,210.568389,9724.431046
319.816022,114.855485,133.998066,9954.142016
319.818496,57.427742,57.427742,9858.429112
319.820970,-0.000000,76.570323,9896.714274
319.823445,-19.142581,114.855485,9915.856854
319.825919,76.570323,191.425808,9686.145885
319.828393,57.427742,191.425808,9686.145885
319.830868,95.712904,114.855485,9839.286531
319.833342,153.140646,0.000000,9781.858789
319.835816,-19.142581,38.285162,9820.143950
319.838290,19.142581,172.283227,10030.712339
319.840765,57.427742,191.425808,9915.856854
319.843239,-0.000000,191.425808,9762.716208
319.845713,76.570323,210.568389,9820.143950
319.848188,191.425808,57.427742,9915.856854
319.850662,95.712904,57.427742,9839.286531
319.853136,-0.000000,153.140646,9896.714274
319.855610,95.712904,248.853550,9915.856854
319.858085,76.570323,229.710970,9801.001370
319.860559,38.285162,133.998066,9762.716208
319.863033,114.855485,114.855485,9896.714274
319.865508,57.427742,38.285162,9820.143950
319.867982,19.142581,153.140646,9858.429112
319.870456,57.427742,191.425808,9973.284597
319.872931,19.142581,306.281293,9934.999435
319.875421,19.142581,133.998066,9781.858789
319.877911,57.427742,95.712904,9839.286531
319.880401,57.427742,57.427742,9801.001370
319.882891,153.140646,76.570323,9762.716208
319.885381,19.142581,153.140646,9839.286531
319.887871,19.142581,229.710970,9973.284597
319.890361,57.427742,344.566454,9858.429112
319.892851,-19.142581,325.423874,9762.716208
319.895341,95.712904,172.283227,9858.429112
319.897831,114.855485,19.142581,9915.856854
319.900321,57.427742,95.712904,9839.286531
319.902811,19.142581,191.425808,9820.143950
319.905301,57.427742,248.853550,9934.999435
319.907791,114.855485,306.281293,9896.714274
319.910281,19.142581,210.568389,9801.001370
319.912771,114.855485,95.712904,9896.714274
319.915261,114.855485,0.000000,9839.286531
319.917751,-0.000000,133.998066,9820.143950
319.920241,38.285162,172.283227,10011.569758
319.922731,76.570323,267.996131,9915.856854
319.925221,114.855485,287.138712,9820.143950
319.927711,153.140646,114.855485,9877.571693
319.930201,95.712904,76.570323,9896.714274
319.932691,114.855485,114.855485,9762.716208
319.935181,95.712904,229.710970,9877.571693
319.937671,38.285162,267.996131,9934.999435
319.940161,38.285162,229.710970,9915.856854
319.942651,19.142581,172.283227,9781.858789
319.945141,172.283227,57.427742,9801.001370
319.947631,57.427742,0.000000,9801.001370
319.950121,19.142581,191.425808,9781.858789
319.952611,19.142581,306.281293,9973.284597
319.955101,76.570323,229.710970,9839.286531
319.957591,57.427742,306.281293,9781.858789
319.960081,57.427742,95.712904,9839.286531
319.962571,133.998066,19.142581,9915.856854
319.965061,57.427742,95.712904,9801.001370
319.967551,76.570323,172.283227,9934.999435
319.970041,38.285162,229.710970,10011.569758
319.972531,38.285162,325.423874,9801.001370
319.975033,76.570323,229.710970,9762.716208
319.977534,95.712904,172.283227,9820.143950
319.980035,114.855485,95.712904,9896.714274
319.982537,-19.142581,38.285162,9801.001370
319.985038,19.142581,191.425808,9896.714274
319.987540,38.285162,210.568389,10011.569758
319.990041,57.427742,306.281293,9820.143950
319.992543,76.570323,229.710970,9820.143950
319.995044,57.427742,38.285162,9896.714274
319.997545,153.140646,57.427742,9896.714274
320.000047,38.285162,76.570323,9858.429112
320.002548,57.427742,191.425808,9992.427178
320.005050,57.427742,287.138712,9781.858789
320.007551,76.570323,210.568389,9762.716208
320.010053,153.140646,95.712904,9896.714274
320.012554,172.283227,19.142581,9877.571693
320.015055,57.427742,95.712904,9820.143950
320.017557,76.570323,172.283227,9858.429112
320.020058,95.712904,248.853550,9934.999435
320.022560,76.570323,267.996131,9839.286531
320.025061,76.570323,172.283227,9762.716208
320.027562,57.427742,0.000000,9896.714274
320.030064,95.712904,57.427742,9896.714274
320.032565,19.142581,114.855485,9877.571693
320.035067,-38.285162,191.425808,9896.714274
320.037568,114.855485,248.853550,9934.999435
320.040070,57.427742,191.425808,9743.573627
320.042571,57.427742,95.712904,9781.858789
320.045072,153.140646,95.712904,9896.714274
320.047574,76.570323,172.283227,9858.429112
320.050075,-0.000000,153.140646,9781.858789
320.052577,57.427742,267.996131,9973.284597
320.055078,57.427742,248.853550,9934.999435
320.057579,-38.285162,191.425808,9686.145885
320.060081,114.855485,114.855485,9820.143950
320.062582,229.710970,76.570323,9992.427178
320.065084,76.570323,191.425808,9801.001370
320.067585,-19.142581,172.283227,9896.714274
320.070087,38.285162,229.710970,9973.284597
320.072588,95.712904,306.281293,9781.858789
320.075100,19.142581,114.855485,9667.003304
320.077611,133.998066,114.855485,9801.001370
320.080123,172.283227,76.570323,9877.571693
320.082634,-38.285162,172.283227,9781.858789
320.085146,38.285162,210.568389,10011.569758
320.087658,76.570323,267.996131,9915.856854
320.090169,38.285162,153.140646,9609.575562
320.092681,153.140646,38.285162,9839.286531
320.095192,133.998066,19.142581,9915.856854
320.097704,-38.285162,153.140646,9820.143950
320.100216,19.142581,287.138712,9934.999435
320.102727,38.285162,229.710970,9915.856854
320.105239,57.427742,248.853550,9743.573627
320.107750,95.712904,172.283227,9762.716208
320.110262,191.425808,76.570323,9915.856854
320.112774,114.855485,114.855485,9820.143950
320.115285,-0.000000,172.283227,9801.001370
320.117797,57.427742,191.425808,9934.999435
320.120308,114.855485,325.423874,9915.856854
320.122820,95.712904,306.281293,9858.429112
320.125332,57.427742,95.712904,9781.858789
320.127843,114.855485,38.285162,9973.284597
320.130355,57.427742,133.998066,9877.571693
320.132866,19.142581,210.568389,9896.714274
320.135378,19.142581,267.996131,9915.856854
320.137890,76.570323,210.568389,9820.143950
320.140401,76.570323,210.568389,9762.716208
320.142913,38.285162,76.570323,9820.143950
320.145424,114.855485,133.998066,9915.856854
320.147936,76.570323,172.283227,9877.571693
320.150447,38.285162,210.568389,9973.284597
320.152959,76.570323,267.996131,9915.856854
320.155471,38.285162,287.138712,9801.001370
320.157982,133.998066,172.283227,9820.143950
320.160494,191.425808,76.570323,9915.856854
320.163005,114.855485,153.140646,9820.143950
320.165517,19.142581,153.140646,9781.858789
320.168029,57.427742,153.140646,9973.284597
320.170540,38.285162,229.710970,9915.856854
320.173052,76.570323,248.853550,9686.145885
320.175572,114.855485,95.712904,9801.001370
320.178091,153.140646,95.712904,9877.571693
320.180611,-0.000000,210.568389,9781.858789
320.183131,-57.427742,191.425808,9896.714274
320.185650,57.427742,229.710970,9973.284597
320.188170,57.427742,248.853550,9667.003304
320.190690,191.425808,133.998066,9839.286531
320.193209,57.427742,57.427742,9896.714274
320.195729,114.855485,57.427742,9896.714274
320.198249,19.142581,133.998066,9858.429112
320.200768,38.285162,210.568389,9973.284597
320.203288,76.570323,267.996131,9896.714274
320.205808,57.427742,191.425808,9686.145885
320.208327,133.998066,76.570323,9724.431046
320.210847,153.140646,114.855485,9877.571693
320.213367,19.142581,172.283227,9781.858789
320.215886,38.285162,172.283227,9896.714274
320.218406,38.285162,229.710970,9915.856854
320.220926,76.570323,153.140646,9762.716208
320.223445,19.142581,114.855485,9781.858789
320.225965,172.283227,57.427742,9820.143950
320.228485,95.712904,114.855485,9896.714274
320.231004,76.570323,172.283227,9877.571693
320.233524,38.285162,210.568389,9915.856854
320.236044,76.570323,210.568389,9877.571693
320.238563,38.285162,172.283227,9781.858789
320.241083,57.427742,95.712904,9781.858789
320.243603,210.568389,76.570323,9896.714274
320.246122,19.142581,153.140646,9781.858789
320.248642,19.142581,229.710970,9801.001370
320.251162,-19.142581,210.568389,9954.142016
320.253681,57.427742,344.566454,9839.286531
320.256201,95.712904,248.853550,9724.431046
320.258721,57.427742,57.427742,9801.001370
320.261240,153.140646,38.285162,9896.714274
320.263760,38.285162,76.570323,9820.143950
320.266280,38.285162,172.283227,9915.856854
320.268799,38.285162,325.423874,9934.999435
320.271319,57.427742,287.138712,9801.001370
320.273839,133.998066,248.853550,9858.429112
320.276365,114.855485,76.570323,9915.856854
320.278890,19.142581,133.998066,9801.001370
320.281416,76.570323,191.425808,9858.429112
320.283942,57.427742,248.853550,9992.427178
320.286468,57.427742,325.423874,9877.571693
320.288993,76.570323,267.996131,9686.145885
320.291519,114.855485,114.855485,9801.001370
320.294045,153.140646,114.855485,9896.714274
320.296571,76.570323,114.855485,9820.143950
320.299096,19.142581,191.425808,9896.714274
320.301622,57.427742,306.281293,9858.429112
320.304148,76.570323,229.710970,9762.716208
320.306674,114.855485,229.710970,9839.286531
320.309199,191.425808,95.712904,9934.999435
320.311725,57.427742,95.712904,9839.286531
320.314251,76.570323,210.568389,9858.429112
320.316777,38.285162,229.710970,9915.856854
320.319302,57.427742,344.566454,9820.143950
320.321828,19.142581,229.710970,9743.573627
320.324354,57.427742,57.427742,9896.714274
320.326880,95.712904,0.000000,9820.143950
320.329405,38.285162,95.712904,9781.858789
320.331931,76.570323,267.996131,9896.714274
320.334457,95.712904,401.994197,9896.714274
320.336983,57.427742,325.423874,9839.286531
320.339508,114.855485,210.568389,9877.571693
320.342034,114.855485,95.712904,9896.714274
320.344560,57.427742,95.712904,9781.858789
320.347086,76.570323,114.855485,9839.286531
320.349611,95.712904,248.853550,9973.284597
320.352137,114.855485,306.281293,9896.714274
320.354663,38.285162,267.996131,9762.716208
320.357189,114.855485,210.568389,9877.571693
320.359714,153.140646,57.427742,9781.858789
320.362240,57.427742,95.712904,9801.001370
320.364766,57.427742,153.140646,9954.142016
320.367292,76.570323,210.568389,9877.571693
320.369817,95.712904,287.138712,9858.429112
320.372343,-0.000000,248.853550,9781.858789
320.374869,95.712904,114.855485,9762.716208
320.377399,153.140646,95.712904,9820.143950
320.379930,76.570323,114.855485,9801.001370
320.382460,38.285162,153.140646,9915.856854
320.384990,76.570323,229.710970,9877.571693
320.387521,57.427742,229.710970,9781.858789
320.390051,133.998066,172.283227,9762.716208
320.392581,114.855485,38.285162,9973.284597
320.395112,-19.142581,76.570323,9877.571693
320.397642,-0.000000,153.140646,9877.571693
320.400173,114.855485,287.138712,9877.571693
320.402703,191.425808,229.710970,9858.429112
320.405233,95.712904,229.710970,9628.718142
320.407764,210.568389,76.570323,9839.286531
320.410294,191.425808,-76.570323,9877.571693
320.412824,38.285162,76.570323,9934.999435
320.415355,-19.142581,210.568389,9915.856854
320.417885,76.570323,344.566454,9915.856854
320.420415,76.570323,267.996131,9724.431046
320.422946,76.570323,114.855485,9743.573627
320.425476,153.140646,38.285162,9877.571693
320.428007,76.570323,76.570323,9915.856854
320.430537,38.285162,133.998066,9820.143950
320.433067,-0.000000,229.710970,9934.999435
320.435598,57.427742,287.138712,9801.001370
320.438128,76.570323,229.710970,9762.716208
320.440658,76.570323,114.855485,9858.429112
320.443189,114.855485,133.998066,9973.284597
320.445719,76.570323,172.283227,9820.143950
320.448249,38.285162,191.425808,9915.856854
320.450780,114.855485,267.996131,9973.284597
320.453310,76.570323,153.140646,9820.143950
320.455841,153.140646,191.425808,9743.573627
320.458371,172.283227,114.855485,9896.714274
320.460901,19.142581,133.998066,9781.858789
320.463432,19.142581,191.425808,9896.714274
320.465962,76.570323,267.996131,9915.856854
320.468492,19.142581,153.140646,9915.856854
320.471023,-0.000000,133.998066,9781.858789
320.473553,114.855485,114.855485,9877.571693
320.476083,95.712904,95.712904,9781.858789
320.478618,19.142581,172.283227,9820.143950
320.481152,76.570323,267.996131,9915.856854
320.483686,19.142581,344.566454,10011.569758
320.486220,57.427742,306.281293,9801.001370
320.488754,133.998066,229.710970,9762.716208
320.491288,172.283227,76.570323,9762.716208
320.493822,153.140646,0.000000,9839.286531
320.496357,76.570323,153.140646,9820.143950
320.498891,38.285162,229.710970,9915.856854
320.501425,38.285162,267.996131,9877.571693
320.503959,38.285162,229.710970,9896.714274
320.506493,76.570323,210.568389,9877.571693
320.509027,133.998066,172.283227,9762.716208
320.511561,57.427742,95.712904,9839.286531
320.514096,76.570323,76.570323,9915.856854
320.516630,-19.142581,114.855485,9934.999435
320.519164,57.427742,153.140646,9934.999435
320.521698,57.427742,287.138712,9781.858789
320.524232,172.283227,172.283227,9801.001370
320.526766,133.998066,133.998066,9915.856854
320.529300,19.142581,153.140646,9839.286531
320.531835,114.855485,133.998066,9954.142016
320.534369,-19.142581,191.425808,9915.856854
320.536903,57.427742,229.710970,9820.143950
320.539437,191.425808,210.568389,9762.716208
320.541971,114.855485,95.712904,9877.571693
320.544505,57.427742,95.712904,9858.429112
320.547039,-19.142581,172.283227,9915.856854
320.549574,-38.285162,172.283227,9915.856854
320.552108,76.570323,172.283227,9820.143950
320.554642,76.570323,153.140646,9820.143950
320.557176,153.140646,95.712904,9820.143950
320.559710,95.712904,114.855485,9820.143950
320.562244,38.285162,76.570323,9877.571693
320.564778,76.570323,229.710970,9877.571693
320.567313,76.570323,325.423874,9915.856854
320.569847,57.427742,191.425808,9801.001370
320.572381,95.712904,114.855485,9820.143950
320.574915,133.998066,95.712904,9934.999435
320.577449,57.427742,0.000000,9858.429112
320.579985,57.427742,57.427742,9801.001370
320.582522,95.712904,191.425808,9877.571693
320.585058,19.142581,267.996131,9896.714274
320.587594,76.570323,210.568389,9820.143950
320.590131,-19.142581,133.998066,9839.286531
320.592667,114.855485,95.712904,9896.714274
320.595203,76.570323,172.283227,9762.716208
320.597740,38.285162,267.996131,9820.143950
320.600276,19.142581,210.568389,9858.429112
320.602812,19.142581,153.140646,9781.858789
320.605349,95.712904,114.855485,9839.286531
320.607885,19.142581,95.712904,9934.999435
320.610421,76.570323,114.855485,9801.001370
320.612958,19.142581,153.140646,9781.858789
320.615494,57.427742,210.568389,9992.427178
320.618030,38.285162,210.568389,9915.856854
320.620567,76.570323,210.568389,9801.001370
320.623103,172.283227,76.570323,9820.143950
320.625640,153.140646,95.712904,9896.714274
320.628176,57.427742,95.712904,9781.858789
320.630712,57.427742,76.570323,9934.999435
320.633249,-0.000000,172.283227,9896.714274
320.635785,76.570323,153.140646,9820.143950
320.638321,76.570323,210.568389,9820.143950
320.640858,133.998066,114.855485,9820.143950
320.643394,114.855485,153.140646,9820.143950
320.645930,19.142581,133.998066,9801.001370
320.648467,57.427742,172.283227,9934.999435
320.651003,95.712904,267.996131,9896.714274
320.653539,19.142581,133.998066,9781.858789
320.656076,76.570323,172.283227,9820.143950
320.658612,191.425808,95.712904,9934.999435
320.661148,95.712904,57.427742,9801.001370
320.663685,19.142581,191.425808,9839.286531
320.666221,38.285162,153.140646,9934.999435
320.668757,76.570323,287.138712,9801.001370
320.671294,19.142581,325.423874,9705.288466
320.673830,133.998066,133.998066,9915.856854
320.676366,153.140646,210.568389,9858.429112
320.678903,-19.142581,133.998066,9820.143950
320.681441,38.285162,287.138712,9915.856854
320.683979,19.142581,229.710970,9934.999435
320.686517,57.427742,210.568389,9743.573627
320.689054,133.998066,172.283227,9858.429112
320.691592,114.855485,114.855485,9839.286531
320.694130,95.712904,114.855485,9801.001370
320.696668,19.142581,191.425808,9858.429112
320.699206,57.427742,344.566454,9896.714274
320.701744,76.570323,229.710970,9877.571693
320.704282,57.427742,191.425808,9667.003304
320.706820,114.855485,191.425808,9820.143950
320.709358,95.712904,114.855485,9877.571693
320.711896,19.142581,153.140646,9781.858789
320.714434,76.570323,191.425808,9858.429112
320.716972,38.285162,229.710970,9915.856854
320.719510,95.712904,229.710970,9820.143950
320.722048,153.140646,210.568389,9839.286531
320.724586,153.140646,38.285162,9877.571693
320.727124,114.855485,114.855485,9839.286531
320.729662,-0.000000,210.568389,9858.429112
320.732200,57.427742,172.283227,9934.999435
320.734738,57.427742,287.138712,9839.286531
320.737276,76.570323,153.140646,9762.716208
320.739814,133.998066,172.283227,9820.143950
320.742352,57.427742,95.712904,9801.001370
320.744890,76.570323,172.283227,9801.001370
320.747428,38.285162,229.710970,9896.714274
320.749966,38.285162,210.568389,9954.142016
320.752504,19.142581,133.998066,9801.001370
320.755042,38.285162,76.570323,9820.143950
320.757580,153.140646,95.712904,9839.286531
320.760118,191.425808,191.425808,9839.286531
320.762656,114.855485,229.710970,9762.716208
320.765194,95.712904,306.281293,9915.856854
320.767732,19.142581,133.998066,9839.286531
320.770269,76.570323,114.855485,9820.143950
320.772807,76.570323,114.855485,9858.429112
320.775345,95.712904,0.000000,9858.429112
320.777883,95.712904,95.712904,9801.001370
320.780421,76.570323,325.423874,9915.856854
