#time,accel_x,accel_y,accel_z
308.017781,-19.142581,57.427742,9896.714274
308.020323,95.712904,172.283227,9762.716208
308.022864,133.998066,191.425808,9743.573627
308.025405,133.998066,172.283227,9858.429112
308.027947,76.570323,76.570323,9705.288466
308.030488,76.570323,114.855485,9820.143950
308.033030,172.283227,19.142581,9858.429112
308.035571,114.855485,229.710970,9762.716208
308.038112,57.427742,325.423874,9858.429112
308.040654,19.142581,153.140646,9896.714274
308.043195,95.712904,172.283227,9934.999435
308.045737,114.855485,114.855485,9877.571693
308.048278,133.998066,76.570323,10011.569758
308.050819,19.142581,191.425808,9896.714274
308.053361,-38.285162,76.570323,9858.429112
308.055902,19.142581,191.425808,9934.999435
308.058444,76.570323,153.140646,9877.571693
308.060985,76.570323,114.855485,9762.716208
308.063528,153.140646,172.283227,9801.001370
308.066071,57.427742,133.998066,9686.145885
308.068614,76.570323,172.283227,9762.716208
308.071157,38.285162,153.140646,9762.716208
308.073700,19.142581,153.140646,9781.858789
308.076243,95.712904,287.138712,9781.858789
308.078787,76.570323,210.568389,9762.716208
308.081330,76.570323,172.283227,9877.571693
308.083873,57.427742,114.855485,9858.429112
308.086416,19.142581,114.855485,9973.284597
308.088959,57.427742,172.283227,9954.142016
308.091502,57.427742,248.853550,9934.999435
308.094045,153.140646,248.853550,9934.999435
308.096588,133.998066,248.853550,9915.856854
308.099131,95.712904,114.855485,9877.571693
308.101674,76.570323,172.283227,9877.571693
308.104217,114.855485,210.568389,9839.286531
308.106760,76.570323,191.425808,9839.286531
308.109303,95.712904,229.710970,9820.143950
308.111847,76.570323,172.283227,9762.716208
308.114390,-0.000000,191.425808,9839.286531
308.116933,76.570323,172.283227,9762.716208
308.119476,19.142581,191.425808,9801.001370
308.122019,19.142581,153.140646,9839.286531
308.124562,-0.000000,76.570323,9820.143950
308.127105,76.570323,95.712904,9801.001370
308.129648,38.285162,76.570323,9801.001370
308.132191,19.142581,133.998066,9820.143950
308.134734,95.712904,172.283227,9858.429112
308.137277,76.570323,210.568389,9877.571693
308.139820,76.570323,191.425808,9877.571693
308.142363,57.427742,114.855485,9896.714274
308.144907,95.712904,229.710970,9781.858789
308.147450,76.570323,153.140646,9820.143950
308.149993,133.998066,172.283227,9858.429112
308.152536,76.570323,210.568389,9858.429112
308.155079,57.427742,248.853550,9934.999435
308.157622,57.427742,248.853550,9877.571693
308.160165,76.570323,172.283227,9934.999435
308.162708,76.570323,76.570323,9915.856854
308.165250,76.570323,172.283227,9877.571693
308.167792,-0.000000,191.425808,9896.714274
308.170333,114.855485,210.568389,9801.001370
308.172875,57.427742,114.855485,9801.001370
308.175417,153.140646,95.712904,9839.286531
308.177959,114.855485,172.283227,9839.286531
308.180500,95.712904,248.853550,9724.431046
308.183042,76.570323,95.712904,9781.858789
308.185584,114.855485,76.570323,9896.714274
308.188126,57.427742,95.712904,9781.858789
308.190667,57.427742,114.855485,9858.429112
308.193209,76.570323,114.855485,9858.429112
308.195751,57.427742,95.712904,9839.286531
308.198292,114.855485,210.568389,9839.286531
308.200834,114.855485,229.710970,9762.716208
308.203376,95.712904,210.568389,9839.286531
308.205918,57.427742,191.425808,9877.571693
308.208459,57.427742,153.140646,9934.999435
308.211001,76.570323,76.570323,9973.284597
308.213543,95.712904,76.570323,10011.569758
308.216085,114.855485,229.710970,9877.571693
308.218626,76.570323,210.568389,9877.571693
308.221168,19.142581,248.853550,9724.431046
308.223710,38.285162,133.998066,9762.716208
308.226252,95.712904,95.712904,9839.286531
308.228793,57.427742,95.712904,9801.001370
308.231335,57.427742,153.140646,9705.288466
308.233877,57.427742,153.140646,9724.431046
308.236419,76.570323,133.998066,9781.858789
308.238960,-19.142581,153.140646,9877.571693
308.241502,38.285162,248.853550,9858.429112
308.244044,38.285162,229.710970,9724.431046
308.246586,153.140646,191.425808,9877.571693
308.249127,76.570323,172.283227,9801.001370
308.251669,95.712904,191.425808,9858.429112
308.254211,57.427742,172.283227,9954.142016
308.256753,95.712904,191.425808,9858.429112
308.259294,57.427742,287.138712,9896.714274
308.261836,76.570323,248.853550,9915.856854
308.264378,57.427742,191.425808,9934.999435
308.266918,19.142581,114.855485,9762.716208
308.269458,133.998066,210.568389,9877.571693
308.271999,153.140646,229.710970,9896.714274
308.274539,57.427742,95.712904,9896.714274
308.277079,19.142581,210.568389,9858.429112
308.279619,19.142581,114.855485,9858.429112
308.282160,76.570323,114.855485,9877.571693
308.284700,153.140646,114.855485,9896.714274
308.287240,-19.142581,248.853550,9839.286531
308.289780,76.570323,229.710970,9743.573627
308.292321,19.142581,133.998066,9781.858789
308.294861,57.427742,114.855485,9801.001370
308.297401,38.285162,95.712904,9896.714274
308.299941,76.570323,95.712904,9915.856854
308.302482,76.570323,229.710970,9820.143950
308.305022,76.570323,210.568389,9858.429112
308.307562,133.998066,229.710970,9877.571693
308.310102,153.140646,153.140646,9934.999435
308.312643,95.712904,133.998066,9934.999435
308.315183,57.427742,153.140646,9973.284597
308.317723,95.712904,153.140646,9934.999435
308.320263,57.427742,133.998066,9934.999435
308.322804,76.570323,76.570323,9915.856854
308.325344,114.855485,95.712904,9858.429112
308.327884,76.570323,172.283227,9762.716208
308.330424,57.427742,229.710970,9781.858789
308.332965,95.712904,248.853550,9934.999435
308.335505,153.140646,153.140646,9877.571693
308.338045,76.570323,114.855485,9820.143950
308.340585,153.140646,95.712904,9820.143950
308.343126,133.998066,133.998066,9705.288466
308.345666,76.570323,172.283227,9762.716208
308.348206,114.855485,229.710970,9820.143950
308.350747,19.142581,210.568389,9801.001370
308.353287,38.285162,210.568389,9915.856854
308.355827,153.140646,191.425808,9973.284597
308.358367,57.427742,57.427742,9839.286531
308.360908,57.427742,95.712904,9896.714274
308.363448,114.855485,95.712904,9820.143950
308.365988,76.570323,153.140646,9858.429112
308.368528,191.425808,229.710970,9877.571693
308.371068,114.855485,210.568389,9858.429112
308.373608,57.427742,153.140646,9934.999435
308.376147,57.427742,133.998066,9934.999435
308.378687,57.427742,57.427742,9896.714274
308.381227,57.427742,19.142581,9781.858789
308.383767,133.998066,153.140646,9820.143950
308.386307,57.427742,95.712904,9839.286531
308.388847,-0.000000,191.425808,9781.858789
308.391387,114.855485,191.425808,9877.571693
308.393926,38.285162,114.855485,9915.856854
308.396466,76.570323,114.855485,9820.143950
308.399006,95.712904,114.855485,9839.286531
308.401546,38.285162,76.570323,9801.001370
308.404086,19.142581,133.998066,9781.858789
308.406626,191.425808,133.998066,9858.429112
308.409166,19.142581,287.138712,9762.716208
308.411706,76.570323,229.710970,9762.716208
308.414245,57.427742,153.140646,9934.999435
308.416785,57.427742,153.140646,9973.284597
308.419325,38.285162,76.570323,9839.286531
308.421865,76.570323,114.855485,9820.143950
308.424405,76.570323,229.710970,9820.143950
308.426945,95.712904,153.140646,9820.143950
308.429485,133.998066,153.140646,9858.429112
308.432024,76.570323,229.710970,9762.716208
308.434564,76.570323,172.283227,9762.716208
308.437104,76.570323,153.140646,9973.284597
308.439644,-0.000000,76.570323,9762.716208
308.442184,38.285162,76.570323,9858.429112
308.444724,76.570323,172.283227,9858.429112
308.447264,19.142581,153.140646,9781.858789
308.449803,38.285162,267.996131,9762.716208
308.452343,76.570323,229.710970,9839.286531
308.454883,38.285162,248.853550,9762.716208
308.457423,57.427742,191.425808,9934.999435
308.459963,57.427742,95.712904,9896.714274
308.462503,19.142581,153.140646,9820.143950
308.465043,76.570323,229.710970,9762.716208
308.467582,38.285162,210.568389,9915.856854
308.470120,114.855485,191.425808,9934.999435
308.472658,57.427742,114.855485,9896.714274
308.475196,114.855485,133.998066,9934.999435
308.477735,76.570323,210.568389,9877.571693
308.480273,57.427742,153.140646,9934.999435
308.482811,95.712904,114.855485,9839.286531
308.485349,95.712904,95.712904,9858.429112
308.487887,114.855485,229.710970,9762.716208
308.490425,76.570323,153.140646,9762.716208
308.492963,-0.000000,133.998066,9839.286531
308.495501,19.142581,191.425808,9896.714274
308.498039,19.142581,172.283227,9801.001370
308.500577,19.142581,153.140646,9781.858789
308.503115,76.570323,153.140646,9820.143950
308.505653,19.142581,191.425808,9896.714274
308.508191,133.998066,153.140646,9839.286531
308.510729,57.427742,114.855485,9801.001370
308.513267,38.285162,267.996131,9858.429112
308.515805,76.570323,191.425808,9839.286531
308.518343,76.570323,172.283227,9858.429112
308.520881,95.712904,114.855485,9801.001370
308.523419,57.427742,95.712904,9839.286531
308.525957,19.142581,153.140646,9820.143950
308.528495,76.570323,210.568389,9858.429112
308.531033,76.570323,172.283227,9877.571693
308.533571,38.285162,229.710970,9915.856854
308.536109,114.855485,76.570323,9915.856854
308.538647,57.427742,114.855485,9896.714274
308.541185,38.285162,76.570323,9858.429112
308.543723,57.427742,95.712904,9801.001370
308.546261,172.283227,95.712904,9801.001370
308.548799,114.855485,114.855485,9839.286531
308.551338,95.712904,114.855485,9839.286531
308.553876,38.285162,76.570323,9877.571693
308.556414,38.285162,114.855485,9915.856854
308.558952,19.142581,172.283227,9858.429112
308.561490,19.142581,191.425808,9839.286531
308.564028,114.855485,114.855485,9762.716208
308.566566,76.570323,172.283227,9762.716208
308.569104,76.570323,210.568389,9820.143950
308.571640,76.570323,172.283227,9839.286531
308.574176,76.570323,210.568389,9858.429112
308.576712,114.855485,153.140646,9954.142016
308.579248,19.142581,133.998066,9896.714274
308.581784,19.142581,153.140646,9839.286531
308.584320,133.998066,133.998066,9801.001370
308.586857,114.855485,172.283227,9762.716208
308.589393,76.570323,229.710970,9820.143950
308.591929,133.998066,210.568389,9858.429112
308.594465,19.142581,153.140646,9839.286531
308.597001,95.712904,191.425808,9934.999435
308.599537,38.285162,133.998066,9934.999435
308.602073,38.285162,76.570323,9820.143950
308.604609,19.142581,153.140646,9801.001370
308.607146,95.712904,191.425808,9877.571693
308.609682,57.427742,191.425808,9820.143950
308.612218,19.142581,229.710970,9762.716208
308.614754,57.427742,114.855485,9801.001370
308.617290,38.285162,172.283227,9915.856854
308.619826,76.570323,114.855485,9839.286531
308.622362,76.570323,172.283227,9858.429112
308.624898,76.570323,210.568389,9858.429112
308.627434,133.998066,210.568389,9820.143950
308.629971,76.570323,210.568389,9858.429112
308.632507,76.570323,229.710970,9877.571693
308.635043,19.142581,191.425808,9915.856854
308.637579,76.570323,133.998066,9915.856854
308.640115,38.285162,114.855485,9896.714274
308.642651,191.425808,114.855485,9877.571693
308.645187,76.570323,229.710970,9877.571693
308.647723,76.570323,210.568389,9801.001370
308.650260,153.140646,287.138712,9781.858789
308.652796,76.570323,287.138712,9877.571693
308.655332,76.570323,114.855485,9877.571693
308.657868,57.427742,133.998066,9934.999435
308.660404,76.570323,114.855485,9877.571693
308.662940,57.427742,95.712904,9781.858789
308.665476,191.425808,172.283227,9820.143950
308.668012,76.570323,229.710970,9877.571693
308.670548,57.427742,248.853550,9743.573627
308.673082,133.998066,191.425808,9820.143950
308.675617,38.285162,210.568389,9954.142016
308.678152,95.712904,153.140646,9934.999435
308.680687,76.570323,172.283227,9877.571693
308.683222,57.427742,114.855485,9781.858789
308.685758,76.570323,172.283227,9762.716208
308.688293,76.570323,229.710970,9858.429112
308.690828,57.427742,287.138712,9801.001370
308.693363,76.570323,210.568389,9877.571693
308.695898,57.427742,287.138712,9896.714274
308.698434,76.570323,76.570323,9915.856854
308.700969,114.855485,95.712904,9858.429112
308.703504,76.570323,153.140646,9839.286531
308.706039,191.425808,153.140646,9801.001370
308.708574,76.570323,172.283227,9858.429112
308.711110,57.427742,191.425808,9858.429112
308.713645,38.285162,210.568389,9896.714274
308.716180,57.427742,229.710970,9839.286531
308.718715,57.427742,95.712904,9801.001370
308.721250,95.712904,76.570323,9934.999435
308.723786,95.712904,114.855485,9839.286531
308.726321,19.142581,191.425808,9839.286531
308.728856,76.570323,172.283227,9762.716208
308.731391,19.142581,191.425808,9839.286531
308.733926,57.427742,248.853550,9934.999435
308.736462,19.142581,172.283227,9858.429112
308.738997,95.712904,114.855485,9839.286531
308.741532,95.712904,76.570323,9896.714274
308.744067,95.712904,95.712904,9781.858789
308.746602,114.855485,172.283227,9858.429112
308.749138,76.570323,210.568389,9858.429112
308.751673,57.427742,306.281293,9858.429112
308.754208,114.855485,153.140646,9934.999435
308.756743,38.285162,210.568389,9915.856854
308.759278,114.855485,114.855485,9839.286531
308.761814,114.855485,114.855485,9839.286531
308.764349,57.427742,95.712904,9781.858789
308.766884,76.570323,153.140646,9801.001370
308.769419,19.142581,191.425808,9896.714274
308.771954,19.142581,191.425808,9801.001370
308.774489,76.570323,191.425808,9877.571693
308.777023,95.712904,76.570323,9915.856854
308.779557,57.427742,95.712904,9801.001370
308.782091,76.570323,133.998066,9781.858789
308.784626,95.712904,114.855485,9877.571693
308.787160,76.570323,210.568389,9820.143950
308.789694,114.855485,210.568389,9762.716208
308.792228,114.855485,229.710970,9877.571693
308.794763,57.427742,133.998066,9934.999435
308.797297,19.142581,133.998066,9858.429112
308.799831,38.285162,191.425808,9915.856854
308.802365,57.427742,95.712904,9781.858789
308.804899,76.570323,210.568389,9820.143950
308.807434,95.712904,229.710970,9877.571693
308.809968,76.570323,287.138712,9801.001370
308.812502,19.142581,172.283227,9820.143950
308.815036,95.712904,153.140646,9934.999435
308.817571,57.427742,153.140646,9973.284597
308.820105,57.427742,95.712904,9896.714274
308.822639,57.427742,114.855485,9820.143950
308.825173,114.855485,172.283227,9858.429112
308.827708,76.570323,172.283227,9858.429112
308.830242,76.570323,210.568389,9877.571693
308.832776,19.142581,248.853550,9801.001370
308.835310,76.570323,210.568389,9877.571693
308.837845,38.285162,172.283227,9915.856854
308.840379,76.570323,153.140646,9858.429112
308.842913,19.142581,133.998066,9896.714274
308.845447,114.855485,172.283227,9877.571693
308.847982,76.570323,153.140646,9762.716208
308.850516,114.855485,229.710970,9801.001370
308.853050,95.712904,172.283227,9858.429112
308.855584,57.427742,153.140646,9934.999435
308.858119,114.855485,210.568389,9877.571693
308.860653,95.712904,153.140646,9858.429112
308.863187,19.142581,191.425808,9781.858789
308.865721,114.855485,153.140646,9801.001370
308.868256,153.140646,229.710970,9762.716208
308.870790,19.142581,210.568389,9896.714274
308.873324,19.142581,229.710970,9934.999435
308.875860,57.427742,210.568389,9973.284597
308.878396,57.427742,133.998066,9858.429112
308.880932,-0.000000,133.998066,9896.714274
308.883468,95.712904,114.855485,9896.714274
308.886004,114.855485,172.283227,9877.571693
308.888540,76.570323,172.283227,9839.286531
308.891076,133.998066,248.853550,9801.001370
308.893612,-0.000000,172.283227,9896.714274
308.896148,76.570323,172.283227,9858.429112
308.898684,114.855485,114.855485,9839.286531
308.901220,19.142581,133.998066,9801.001370
308.903756,76.570323,153.140646,9762.716208
308.906292,76.570323,210.568389,9877.571693
308.908828,76.570323,229.710970,9762.716208
308.911364,76.570323,133.998066,9896.714274
308.913900,95.712904,133.998066,9934.999435
308.916436,114.855485,114.855485,9858.429112
308.918972,114.855485,114.855485,9839.286531
308.921508,76.570323,114.855485,9858.429112
308.924044,57.427742,229.710970,9896.714274
308.926580,114.855485,210.568389,9877.571693
308.929116,114.855485,210.568389,9858.429112
308.931652,19.142581,172.283227,9858.429112
308.934188,95.712904,76.570323,9915.856854
308.936724,38.285162,153.140646,9915.856854
308.939260,153.140646,95.712904,9839.286531
308.941796,38.285162,133.998066,9762.716208
308.944332,76.570323,172.283227,9820.143950
308.946868,114.855485,114.855485,9877.571693
308.949404,76.570323,210.568389,9820.143950
308.951941,76.570323,172.283227,9820.143950
308.954477,76.570323,114.855485,9762.716208
308.957013,76.570323,114.855485,9934.999435
308.959549,76.570323,76.570323,9915.856854
308.962085,95.712904,153.140646,9820.143950
308.964621,114.855485,172.283227,9858.429112
308.967157,95.712904,287.138712,9858.429112
308.969693,95.712904,210.568389,9839.286531
308.972229,19.142581,133.998066,9781.858789
308.974765,133.998066,210.568389,9858.429112
308.977300,57.427742,114.855485,9896.714274
308.979835,38.285162,76.570323,9839.286531
308.982369,57.427742,114.855485,9801.001370
308.984904,76.570323,229.710970,9839.286531
308.987439,114.855485,114.855485,9820.143950
308.989974,38.285162,267.996131,9762.716208
308.992509,76.570323,210.568389,9801.001370
308.995044,19.142581,133.998066,9839.286531
308.997579,76.570323,210.568389,9858.429112
309.000114,114.855485,114.855485,9858.429112
309.002649,114.855485,95.712904,9839.286531
309.005184,114.855485,133.998066,9934.999435
309.007719,114.855485,191.425808,9858.429112
309.010254,19.142581,248.853550,9839.286531
309.012789,57.427742,191.425808,9934.999435
309.015324,76.570323,210.568389,9877.571693
309.017858,114.855485,76.570323,9915.856854
309.020393,95.712904,95.712904,9839.286531
309.022928,76.570323,114.855485,9858.429112
309.025463,76.570323,210.568389,9762.716208
309.027998,76.570323,210.568389,9858.429112
309.030533,76.570323,229.710970,9820.143950
309.033068,95.712904,210.568389,9820.143950
309.035603,153.140646,191.425808,9934.999435
309.038138,76.570323,95.712904,9934.999435
309.040673,76.570323,153.140646,9858.429112
309.043208,76.570323,172.283227,9858.429112
309.045743,76.570323,153.140646,9877.571693
309.048278,114.855485,287.138712,9896.714274
309.050813,57.427742,287.138712,9781.858789
309.053347,19.142581,210.568389,9858.429112
309.055882,76.570323,172.283227,9858.429112
309.058417,19.142581,133.998066,9915.856854
309.060952,95.712904,95.712904,9801.001370
309.063487,95.712904,114.855485,9858.429112
309.066022,57.427742,114.855485,9801.001370
309.068557,76.570323,172.283227,9820.143950
309.071092,133.998066,210.568389,9839.286531
309.073627,153.140646,210.568389,9877.571693
309.076162,38.285162,191.425808,9915.856854
309.078698,57.427742,191.425808,9877.571693
309.081235,57.427742,95.712904,9820.143950
309.083772,76.570323,76.570323,9896.714274
309.086308,172.283227,114.855485,9839.286531
309.088845,76.570323,210.568389,9820.143950
309.091381,133.998066,191.425808,9839.286531
309.093918,76.570323,229.710970,9801.001370
309.096455,76.570323,191.425808,9877.571693
309.098991,95.712904,114.855485,9762.716208
309.101528,76.570323,114.855485,9762.716208
309.104065,19.142581,95.712904,9934.999435
309.106601,76.570323,114.855485,9877.571693
309.109138,19.142581,191.425808,9858.429112
309.111674,95.712904,287.138712,9820.143950
309.114211,76.570323,210.568389,9877.571693
309.116748,19.142581,133.998066,9896.714274
309.119284,76.570323,153.140646,9877.571693
309.121821,57.427742,95.712904,9896.714274
309.124357,76.570323,210.568389,9877.571693
309.126894,38.285162,153.140646,9858.429112
309.129431,57.427742,153.140646,9743.573627
309.131967,114.855485,172.283227,9839.286531
309.134504,-0.000000,210.568389,9781.858789
309.137041,19.142581,114.855485,9934.999435
309.139577,19.142581,133.998066,9781.858789
309.142114,76.570323,172.283227,9820.143950
309.144650,153.140646,153.140646,9762.716208
309.147187,133.998066,114.855485,9858.429112
309.149724,114.855485,114.855485,9762.716208
309.152260,19.142581,191.425808,9896.714274
309.154797,76.570323,172.283227,9877.571693
309.157333,38.285162,229.710970,9915.856854
309.159870,76.570323,114.855485,9858.429112
309.162407,57.427742,38.285162,9801.001370
309.164943,153.140646,95.712904,9801.001370
309.167480,114.855485,287.138712,9820.143950
309.170017,95.712904,229.710970,9781.858789
309.172553,114.855485,287.138712,9896.714274
309.175090,57.427742,153.140646,9934.999435
309.177626,38.285162,114.855485,9973.284597
309.180164,114.855485,95.712904,9801.001370
309.182701,76.570323,172.283227,9762.716208
309.185239,57.427742,287.138712,9896.714274
309.187776,76.570323,229.710970,9820.143950
309.190314,76.570323,153.140646,9877.571693
309.192851,133.998066,210.568389,9877.571693
309.195389,38.285162,114.855485,9915.856854
309.197926,57.427742,133.998066,9896.714274
309.200464,57.427742,114.855485,9781.858789
309.203001,191.425808,153.140646,9801.001370
309.205538,133.998066,114.855485,9801.001370
309.208076,76.570323,210.568389,9858.429112
309.210613,76.570323,229.710970,9877.571693
309.213151,57.427742,248.853550,9820.143950
309.215688,19.142581,248.853550,9858.429112
309.218226,95.712904,191.425808,9992.427178
309.220763,95.712904,114.855485,9820.143950
309.223301,19.142581,153.140646,9858.429112
309.225838,114.855485,172.283227,9820.143950
309.228376,95.712904,114.855485,9762.716208
309.230913,57.427742,229.710970,9801.001370
309.233451,114.855485,287.138712,9896.714274
309.235988,19.142581,191.425808,9896.714274
309.238526,114.855485,114.855485,9839.286531
309.241063,57.427742,95.712904,9858.429112
309.243600,76.570323,172.283227,9839.286531
309.246138,76.570323,210.568389,9839.286531
309.248675,57.427742,287.138712,9781.858789
309.251213,-0.000000,248.853550,9820.143950
309.253750,57.427742,172.283227,9934.999435
309.256288,19.142581,76.570323,9954.142016
309.258825,38.285162,38.285162,9877.571693
309.261363,57.427742,95.712904,9801.001370
309.263900,76.570323,172.283227,9839.286531
309.266438,57.427742,287.138712,9839.286531
309.268975,76.570323,229.710970,9858.429112
309.271513,114.855485,210.568389,9820.143950
309.274050,38.285162,229.710970,9839.286531
309.276588,57.427742,172.283227,9934.999435
309.279125,95.712904,133.998066,9973.284597
309.281663,19.142581,95.712904,9858.429112
309.284201,76.570323,153.140646,9762.716208
309.286739,153.140646,95.712904,9801.001370
309.289277,57.427742,287.138712,9781.858789
309.291815,95.712904,229.710970,9801.001370
309.294353,76.570323,153.140646,9877.571693
309.296891,57.427742,133.998066,9973.284597
309.299429,76.570323,76.570323,9915.856854
309.301967,38.285162,76.570323,9820.143950
309.304505,76.570323,76.570323,9781.858789
309.307043,76.570323,153.140646,9896.714274
309.309581,19.142581,191.425808,9896.714274
309.312119,-0.000000,191.425808,9801.001370
309.314657,57.427742,191.425808,9934.999435
309.317195,76.570323,133.998066,9915.856854
309.319733,114.855485,95.712904,9896.714274
309.322271,95.712904,114.855485,9858.429112
309.324809,76.570323,229.710970,9858.429112
309.327347,153.140646,210.568389,9858.429112
309.329886,114.855485,306.281293,9896.714274
309.332424,95.712904,306.281293,9801.001370
309.334962,19.142581,153.140646,9839.286531
309.337500,19.142581,191.425808,9896.714274
309.340038,57.427742,95.712904,9839.286531
309.342576,114.855485,153.140646,9743.573627
309.345114,57.427742,248.853550,9877.571693
309.347652,133.998066,229.710970,9839.286531
309.350190,57.427742,229.710970,9820.143950
309.352728,114.855485,153.140646,9858.429112
309.355266,38.285162,172.283227,9915.856854
309.357804,57.427742,114.855485,9896.714274
309.360342,38.285162,114.855485,9954.142016
309.362880,38.285162,38.285162,9839.286531
309.365418,19.142581,153.140646,9896.714274
309.367956,95.712904,287.138712,9839.286531
309.370494,38.285162,267.996131,9820.143950
309.373032,76.570323,229.710970,9858.429112
309.375570,57.427742,191.425808,9934.999435
309.378108,19.142581,95.712904,9934.999435
309.380646,57.427742,57.427742,9801.001370
309.383184,114.855485,114.855485,9877.571693
309.385722,57.427742,172.283227,9877.571693
309.388260,76.570323,172.283227,9762.716208
309.390798,76.570323,210.568389,9896.714274
309.393336,114.855485,210.568389,9858.429112
309.395873,57.427742,153.140646,9934.999435
309.398411,95.712904,95.712904,9896.714274
309.400949,95.712904,95.712904,9896.714274
309.403487,95.712904,95.712904,9896.714274
309.406025,114.855485,210.568389,9858.429112
309.408563,57.427742,325.423874,9896.714274
309.411101,19.142581,191.425808,9896.714274
309.413639,133.998066,248.853550,9896.714274
309.416177,95.712904,95.712904,9896.714274
309.418715,57.427742,95.712904,9896.714274
309.421252,57.427742,95.712904,9839.286531
309.423790,19.142581,133.998066,9781.858789
309.426328,114.855485,229.710970,9820.143950
309.428866,153.140646,287.138712,9896.714274
309.431404,76.570323,210.568389,9858.429112
309.433942,38.285162,172.283227,9915.856854
309.436480,76.570323,210.568389,9877.571693
309.439018,57.427742,57.427742,9839.286531
309.441556,57.427742,95.712904,9781.858789
309.444094,57.427742,95.712904,9801.001370
309.446631,76.570323,229.710970,9762.716208
309.449169,95.712904,210.568389,9858.429112
309.451707,38.285162,267.996131,9877.571693
309.454245,57.427742,153.140646,9877.571693
309.456783,76.570323,114.855485,9877.571693
309.459321,38.285162,114.855485,9973.284597
309.461859,76.570323,114.855485,9839.286531
309.464397,19.142581,153.140646,9801.001370
309.466935,19.142581,153.140646,9801.001370
309.469473,38.285162,133.998066,9762.716208
309.472010,57.427742,287.138712,9820.143950
309.474548,38.285162,210.568389,9973.284597
309.477086,19.142581,95.712904,9934.999435
309.479624,19.142581,133.998066,9839.286531
309.482162,57.427742,95.712904,9801.001370
309.484700,95.712904,114.855485,9839.286531
309.487237,76.570323,229.710970,9820.143950
309.489775,19.142581,191.425808,9820.143950
309.492312,76.570323,210.568389,9858.429112
309.494850,76.570323,210.568389,9762.716208
309.497387,95.712904,95.712904,9896.714274
309.499925,76.570323,114.855485,9858.429112
309.502462,19.142581,133.998066,9781.858789
309.505000,76.570323,229.710970,9858.429112
309.507537,153.140646,191.425808,9877.571693
309.510075,114.855485,229.710970,9820.143950
309.512612,38.285162,229.710970,9839.286531
309.515150,57.427742,133.998066,9934.999435
309.517687,38.285162,76.570323,9801.001370
309.520225,57.427742,95.712904,9801.001370
309.522762,114.855485,133.998066,9934.999435
309.525300,76.570323,248.853550,9801.001370
309.527837,38.285162,325.423874,9858.429112
309.530375,-0.000000,267.996131,9801.001370
309.532913,19.142581,210.568389,9801.001370
309.535450,19.142581,153.140646,9858.429112
309.537988,114.855485,114.855485,9915.856854
309.540525,38.285162,76.570323,9820.143950
309.543063,76.570323,210.568389,9762.716208
309.545600,76.570323,191.425808,9877.571693
309.548138,76.570323,229.710970,9801.001370
309.550675,133.998066,210.568389,9839.286531
309.553213,57.427742,191.425808,9934.999435
309.555750,57.427742,191.425808,9934.999435
309.558288,38.285162,114.855485,9915.856854
309.560825,57.427742,114.855485,9858.429112
309.563363,19.142581,133.998066,9801.001370
309.565900,57.427742,210.568389,9934.999435
309.568438,114.855485,229.710970,9781.858789
309.570975,57.427742,229.710970,9801.001370
309.573513,38.285162,248.853550,9877.571693
309.576050,76.570323,210.568389,9877.571693
309.578588,153.140646,95.712904,9896.714274
309.581126,57.427742,95.712904,9781.858789
309.583663,76.570323,210.568389,9839.286531
309.586200,76.570323,210.568389,9877.571693
309.588737,76.570323,172.283227,9858.429112
309.591274,76.570323,191.425808,9858.429112
309.593812,19.142581,248.853550,9801.001370
309.596349,19.142581,191.425808,9839.286531
309.598886,57.427742,133.998066,9934.999435
309.601423,57.427742,114.855485,9858.429112
309.603960,57.427742,153.140646,9877.571693
309.606497,114.855485,172.283227,9820.143950
309.609034,19.142581,248.853550,9858.429112
309.611572,38.285162,287.138712,9915.856854
309.614109,76.570323,153.140646,9858.429112
309.616646,95.712904,133.998066,9934.999435
309.619183,95.712904,133.998066,9934.999435
309.621720,57.427742,95.712904,9801.001370
309.624257,114.855485,114.855485,9877.571693
309.626794,19.142581,191.425808,9896.714274
309.629332,57.427742,306.281293,9839.286531
309.631869,57.427742,287.138712,9801.001370
309.634406,114.855485,172.283227,9877.571693
309.636943,76.570323,153.140646,9877.571693
309.639480,57.427742,95.712904,9781.858789
309.642017,57.427742,95.712904,9858.429112
309.644554,95.712904,153.140646,9877.571693
309.647092,76.570323,114.855485,9896.714274
309.649629,19.142581,248.853550,9896.714274
309.652166,76.570323,210.568389,9877.571693
309.654703,57.427742,153.140646,9973.284597
309.657240,76.570323,76.570323,9915.856854
309.659777,76.570323,76.570323,9781.858789
309.662314,95.712904,114.855485,9858.429112
309.664852,76.570323,114.855485,9820.143950
309.667389,76.570323,114.855485,9858.429112
309.669926,38.285162,267.996131,9858.429112
309.672463,-0.000000,210.568389,9801.001370
309.675000,76.570323,153.140646,9781.858789
309.677537,57.427742,95.712904,9915.856854
309.680074,114.855485,95.712904,9896.714274
309.682612,76.570323,114.855485,9820.143950
309.685149,114.855485,114.855485,9820.143950
309.687688,57.427742,172.283227,9820.143950
309.690226,95.712904,287.138712,9839.286531
309.692763,76.570323,210.568389,9839.286531
309.695300,19.142581,248.853550,9896.714274
309.697838,38.285162,95.712904,9896.714274
309.700375,57.427742,95.712904,9781.858789
309.702913,57.427742,38.285162,9762.716208
309.705450,95.712904,229.710970,9820.143950
309.707988,76.570323,210.568389,9762.716208
309.710525,57.427742,229.710970,9839.286531
309.713062,76.570323,153.140646,9858.429112
309.715600,19.142581,95.712904,9973.284597
309.718137,38.285162,76.570323,9877.571693
309.720675,76.570323,172.283227,9762.716208
309.723212,57.427742,114.855485,9896.714274
309.725750,76.570323,191.425808,9762.716208
309.728287,57.427742,210.568389,9820.143950
309.730824,38.285162,325.423874,9820.143950
309.733362,57.427742,210.568389,9934.999435
309.735899,57.427742,133.998066,9934.999435
309.738437,76.570323,172.283227,9839.286531
309.740974,95.712904,95.712904,9781.858789
309.743512,38.285162,76.570323,9820.143950
309.746049,114.855485,172.283227,9858.429112
309.748586,114.855485,229.710970,9839.286531
309.751124,19.142581,210.568389,9858.429112
309.753661,57.427742,191.425808,9934.999435
309.756199,57.427742,133.998066,9934.999435
309.758736,57.427742,133.998066,9934.999435
309.761274,114.855485,210.568389,9762.716208
309.763811,76.570323,172.283227,9801.001370
309.766349,95.712904,172.283227,9801.001370
309.768886,153.140646,229.710970,9839.286531
309.771423,114.855485,153.140646,9820.143950
309.773961,76.570323,210.568389,9877.571693
309.776498,114.855485,114.855485,9877.571693
309.779036,57.427742,95.712904,9839.286531
309.781573,95.712904,95.712904,9801.001370
309.784111,95.712904,210.568389,9762.716208
309.786648,95.712904,210.568389,9762.716208
309.789185,19.142581,248.853550,9858.429112
309.791722,19.142581,248.853550,9801.001370
309.794259,38.285162,114.855485,9954.142016
309.796797,38.285162,114.855485,9915.856854
309.799334,38.285162,76.570323,9858.429112
309.801871,114.855485,172.283227,9762.716208
309.804408,153.140646,133.998066,9820.143950
309.806945,76.570323,210.568389,9858.429112
309.809483,114.855485,248.853550,9915.856854
309.812020,76.570323,229.710970,9839.286531
309.814557,76.570323,172.283227,9877.571693
309.817094,57.427742,133.998066,9954.142016
309.819631,57.427742,95.712904,9896.714274
309.822168,153.140646,133.998066,9743.573627
309.824706,133.998066,210.568389,9858.429112
309.827243,19.142581,153.140646,9820.143950
309.829780,57.427742,229.710970,9801.001370
309.832317,95.712904,229.710970,9858.429112
309.834854,38.285162,76.570323,9877.571693
309.837391,95.712904,95.712904,9839.286531
309.839929,95.712904,114.855485,9839.286531
309.842466,76.570323,114.855485,9762.716208
309.845003,76.570323,210.568389,9839.286531
309.847540,76.570323,191.425808,9858.429112
309.850077,114.855485,229.710970,9820.143950
309.852614,57.427742,114.855485,9801.001370
309.855152,38.285162,210.568389,9973.284597
309.857689,38.285162,133.998066,9934.999435
309.860226,95.712904,95.712904,9896.714274
309.862763,114.855485,172.283227,9820.143950
309.865300,76.570323,210.568389,9858.429112
309.867837,57.427742,191.425808,9934.999435
309.870375,19.142581,248.853550,9839.286531
309.872912,38.285162,210.568389,9896.714274
309.875449,-19.142581,210.568389,9915.856854
309.877986,57.427742,76.570323,9858.429112
309.880523,76.570323,114.855485,9762.716208
309.883060,153.140646,95.712904,9896.714274
309.885598,76.570323,191.425808,9801.001370
309.888135,57.427742,229.710970,9781.858789
309.890671,76.570323,229.710970,9820.143950
309.893208,19.142581,153.140646,9858.429112
309.895745,57.427742,95.712904,9839.286531
309.898281,76.570323,76.570323,9915.856854
309.900818,95.712904,76.570323,9896.714274
309.903355,76.570323,153.140646,9820.143950
309.905892,76.570323,172.283227,9839.286531
309.908428,76.570323,325.423874,9724.431046
309.910965,76.570323,229.710970,9877.571693
309.913502,153.140646,153.140646,9915.856854
309.916038,57.427742,114.855485,9915.856854
309.918575,38.285162,76.570323,9801.001370
309.921112,-0.000000,76.570323,9820.143950
309.923648,76.570323,114.855485,9801.001370
309.926185,114.855485,172.283227,9839.286531
309.928722,114.855485,229.710970,9858.429112
309.931258,57.427742,287.138712,9896.714274
309.933795,-0.000000,248.853550,9896.714274
309.936332,-0.000000,153.140646,9896.714274
309.938868,38.285162,76.570323,9877.571693
309.941405,76.570323,114.855485,9820.143950
309.943942,76.570323,210.568389,9820.143950
309.946478,76.570323,210.568389,9858.429112
309.949015,95.712904,287.138712,9820.143950
309.951552,19.142581,248.853550,9839.286531
309.954088,57.427742,133.998066,9934.999435
309.956625,57.427742,153.140646,9934.999435
309.959162,114.855485,76.570323,9915.856854
309.961698,133.998066,153.140646,9839.286531
309.964235,95.712904,95.712904,9896.714274
309.966772,114.855485,210.568389,9858.429112
309.969308,95.712904,287.138712,9762.716208
309.971845,38.285162,267.996131,9858.429112
309.974382,19.142581,210.568389,9992.427178
309.976918,19.142581,133.998066,9896.714274
309.979455,76.570323,133.998066,9820.143950
309.981992,76.570323,153.140646,9820.143950
309.984528,19.142581,191.425808,9839.286531
309.987065,114.855485,210.568389,9858.429112
309.989602,153.140646,210.568389,9858.429112
309.992138,19.142581,172.283227,9896.714274
309.994675,57.427742,133.998066,9934.999435
309.997211,38.285162,153.140646,9934.999435
309.999748,114.855485,229.710970,9839.286531
310.002285,76.570323,191.425808,9686.145885
310.004821,95.712904,191.425808,9762.716208
310.007358,57.427742,95.712904,9820.143950
310.009894,-0.000000,38.285162,9877.571693
310.012431,38.285162,38.285162,9858.429112
310.014968,-76.570323,229.710970,9896.714274
310.017504,114.855485,287.138712,9839.286531
310.020041,95.712904,306.281293,9781.858789
310.022577,133.998066,172.283227,9820.143950
310.025114,114.855485,95.712904,9801.001370
310.027650,57.427742,38.285162,9896.714274
310.030187,76.570323,76.570323,9915.856854
310.032724,76.570323,172.283227,9820.143950
310.035260,95.712904,153.140646,9839.286531
310.037797,153.140646,191.425808,9934.999435
310.040333,114.855485,210.568389,9877.571693
310.042870,19.142581,248.853550,9820.143950
310.045407,76.570323,153.140646,9839.286531
310.047943,38.285162,57.427742,9820.143950
310.050480,38.285162,38.285162,9839.286531
310.053016,95.712904,57.427742,9839.286531
310.055553,19.142581,114.855485,9647.860723
310.058089,57.427742,229.710970,9896.714274
310.060626,76.570323,229.710970,9820.143950
310.063163,19.142581,153.140646,9839.286531
310.065699,57.427742,57.427742,9896.714274
310.068236,76.570323,19.142581,9915.856854
310.070772,153.140646,38.285162,9820.143950
310.073309,95.712904,57.427742,9896.714274
310.075846,19.142581,248.853550,9801.001370
310.078382,38.285162,325.423874,9858.429112
310.080919,57.427742,306.281293,9839.286531
310.083455,57.427742,248.853550,9954.142016
310.085992,95.712904,133.998066,9877.571693
310.088529,153.140646,38.285162,9781.858789
310.091065,57.427742,57.427742,9781.858789
310.093602,114.855485,95.712904,9839.286531
310.096138,114.855485,229.710970,9877.571693
310.098674,95.712904,363.709035,9915.856854
310.101211,-0.000000,344.566454,9762.716208
310.103747,57.427742,325.423874,9781.858789
310.106284,76.570323,114.855485,9858.429112
310.108820,38.285162,19.142581,9801.001370
310.111356,95.712904,38.285162,9896.714274
310.113893,95.712904,114.855485,9781.858789
310.116429,19.142581,191.425808,9801.001370
310.118966,76.570323,363.709035,9915.856854
310.121502,57.427742,287.138712,9839.286531
310.124038,76.570323,172.283227,9762.716208
310.126575,95.712904,114.855485,9839.286531
310.129111,57.427742,95.712904,9839.286531
310.131648,57.427742,57.427742,9781.858789
310.134184,153.140646,153.140646,9934.999435
310.136720,19.142581,229.710970,9801.001370
310.139257,57.427742,344.566454,9839.286531
310.141793,76.570323,325.423874,9915.856854
310.144330,19.142581,248.853550,9896.714274
310.146866,57.427742,95.712904,9896.714274
310.149402,95.712904,114.855485,9877.571693
310.151939,38.285162,95.712904,9820.143950
310.154475,95.712904,210.568389,9762.716208
310.157012,38.285162,267.996131,9877.571693
310.159548,19.142581,344.566454,9934.999435
310.162084,76.570323,229.710970,9839.286531
310.164621,38.285162,248.853550,9839.286531
310.167157,19.142581,133.998066,9896.714274
310.169694,57.427742,95.712904,9781.858789
310.172230,38.285162,38.285162,9762.716208
310.174767,76.570323,229.710970,9762.716208
310.177303,38.285162,306.281293,9801.001370
310.179839,76.570323,325.423874,9992.427178
310.182376,38.285162,306.281293,9801.001370
310.184912,95.712904,210.568389,9839.286531
310.187449,95.712904,114.855485,9839.286531
310.189985,38.285162,57.427742,9858.429112
310.192521,57.427742,114.855485,9839.286531
310.195058,76.570323,210.568389,9839.286531
310.197594,76.570323,229.710970,9877.571693
310.200131,95.712904,229.710970,9839.286531
310.202667,76.570323,229.710970,9762.716208
310.205204,76.570323,114.855485,9762.716208
310.207740,57.427742,38.285162,9896.714274
310.210277,19.142581,-38.285162,9781.858789
310.212813,114.855485,38.285162,9839.286531
310.215349,-19.142581,76.570323,9820.143950
310.217886,57.427742,287.138712,9915.856854
310.220422,38.285162,306.281293,9858.429112
310.222959,76.570323,267.996131,9781.858789
310.225495,76.570323,172.283227,9877.571693
310.228032,114.855485,95.712904,9839.286531
310.230568,57.427742,95.712904,9801.001370
310.233105,76.570323,76.570323,9915.856854
310.235641,57.427742,57.427742,9858.429112
310.238178,38.285162,325.423874,9877.571693
310.240714,38.285162,325.423874,9839.286531
310.243251,57.427742,287.138712,9839.286531
310.245787,95.712904,114.855485,9858.429112
310.248323,133.998066,38.285162,9915.856854
310.250860,38.285162,76.570323,9801.001370
310.253396,172.283227,95.712904,9801.001370
310.255933,114.855485,287.138712,9839.286531
310.258469,114.855485,382.851616,9915.856854
310.261006,57.427742,229.710970,9858.429112
310.263542,19.142581,191.425808,9896.714274
310.266079,57.427742,95.712904,9896.714274
310.268615,57.427742,57.427742,9781.858789
310.271152,153.140646,0.000000,9781.858789
310.273688,133.998066,153.140646,9839.286531
310.276224,76.570323,229.710970,9839.286531
310.278761,76.570323,325.423874,9896.714274
310.281297,57.427742,229.710970,9896.714274
310.283834,19.142581,191.425808,9839.286531
310.286370,38.285162,76.570323,9877.571693
310.288907,76.570323,0.000000,9877.571693
310.291443,76.570323,114.855485,9858.429112
310.293980,76.570323,229.710970,9801.001370
310.296516,172.283227,325.423874,9858.429112
310.299052,76.570323,325.423874,9915.856854
310.301589,57.427742,229.710970,9896.714274
310.304125,19.142581,133.998066,9839.286531
310.306661,114.855485,38.285162,9896.714274
310.309197,153.140646,38.285162,9896.714274
310.311734,191.425808,114.855485,9820.143950
310.314270,76.570323,229.710970,9762.716208
310.316806,57.427742,287.138712,9896.714274
310.319343,38.285162,267.996131,9877.571693
310.321879,-0.000000,267.996131,9820.143950
310.324415,114.855485,210.568389,9839.286531
310.326951,76.570323,114.855485,9877.571693
310.329488,38.285162,19.142581,9801.001370
310.332024,57.427742,95.712904,9896.714274
310.334560,76.570323,210.568389,9762.716208
310.337097,76.570323,363.709035,9839.286531
310.339633,57.427742,287.138712,9839.286531
310.342169,114.855485,229.710970,9820.143950
310.344705,76.570323,172.283227,9858.429112
310.347242,153.140646,0.000000,9896.714274
310.349778,57.427742,57.427742,9801.001370
310.352314,133.998066,114.855485,9820.143950
310.354851,76.570323,229.710970,9820.143950
310.357387,38.285162,382.851616,9858.429112
310.359923,-57.427742,344.566454,9934.999435
310.362460,95.712904,210.568389,9820.143950
310.364996,133.998066,153.140646,9896.714274
310.367532,38.285162,38.285162,9839.286531
310.370068,38.285162,76.570323,9820.143950
310.372605,114.855485,210.568389,9762.716208
310.375141,19.142581,153.140646,9820.143950
310.377677,114.855485,267.996131,9954.142016
310.380214,57.427742,287.138712,9896.714274
310.382750,19.142581,172.283227,9781.858789
310.385286,38.285162,76.570323,9762.716208
310.387822,95.712904,57.427742,9801.001370
310.390359,57.427742,95.712904,9801.001370
310.392895,114.855485,133.998066,9820.143950
310.395431,19.142581,153.140646,9858.429112
310.397967,19.142581,267.996131,9934.999435
310.400503,57.427742,133.998066,9934.999435
310.403039,95.712904,133.998066,9877.571693
310.405575,38.285162,76.570323,9858.429112
310.408110,95.712904,114.855485,9858.429112
310.410646,57.427742,76.570323,9820.143950
310.413182,-0.000000,95.712904,9858.429112
310.415718,76.570323,172.283227,9877.571693
310.418254,95.712904,210.568389,9877.571693
310.420790,95.712904,210.568389,9877.571693
310.423325,76.570323,172.283227,9762.716208
310.425861,95.712904,95.712904,9801.001370
310.428397,153.140646,38.285162,9896.714274
310.430933,38.285162,76.570323,9762.716208
310.433469,19.142581,172.283227,9762.716208
310.436005,76.570323,210.568389,9820.143950
310.438540,76.570323,133.998066,9915.856854
310.441076,57.427742,229.710970,9915.856854
310.443612,19.142581,210.568389,9801.001370
310.446148,38.285162,153.140646,9781.858789
310.448684,153.140646,95.712904,9781.858789
310.451220,133.998066,133.998066,9858.429112
310.453755,57.427742,95.712904,9896.714274
310.456291,19.142581,248.853550,9839.286531
310.458827,57.427742,306.281293,9896.714274
310.461363,76.570323,210.568389,9801.001370
310.463899,76.570323,172.283227,9877.571693
310.466435,133.998066,114.855485,9896.714274
310.468970,95.712904,38.285162,9858.429112
310.471506,114.855485,38.285162,9820.143950
310.474042,76.570323,153.140646,9896.714274
310.476578,57.427742,229.710970,9896.714274
310.479114,76.570323,267.996131,9915.856854
310.481650,95.712904,248.853550,9877.571693
310.484185,38.285162,248.853550,9839.286531
310.486721,114.855485,95.712904,9820.143950
310.489257,57.427742,57.427742,9896.714274
310.491793,76.570323,38.285162,9724.431046
310.494329,133.998066,172.283227,9858.429112
310.496865,57.427742,306.281293,9896.714274
310.499400,57.427742,229.710970,9858.429112
310.501936,19.142581,248.853550,9781.858789
310.504471,114.855485,229.710970,9820.143950
310.507007,76.570323,172.283227,9877.571693
310.509543,114.855485,114.855485,9839.286531
310.512078,95.712904,95.712904,9839.286531
310.514614,76.570323,210.568389,9820.143950
310.517150,38.285162,267.996131,9858.429112
310.519685,76.570323,229.710970,9858.429112
310.522221,95.712904,210.568389,9820.143950
310.524757,95.712904,191.425808,9934.999435
310.527292,95.712904,114.855485,9762.716208
310.529828,19.142581,191.425808,9801.001370
310.532363,114.855485,114.855485,9762.716208
310.534899,57.427742,229.710970,9858.429112
310.537435,57.427742,267.996131,9934.999435
310.539970,38.285162,267.996131,9877.571693
310.542506,76.570323,191.425808,9877.571693
310.545042,76.570323,114.855485,9858.429112
310.547577,95.712904,95.712904,9801.001370
310.550113,57.427742,95.712904,9801.001370
310.552649,19.142581,133.998066,9915.856854
310.555184,57.427742,153.140646,9877.571693
310.557720,76.570323,229.710970,9877.571693
310.560255,57.427742,344.566454,9896.714274
310.562791,57.427742,344.566454,9781.858789
310.565327,191.425808,153.140646,9781.858789
310.567862,57.427742,95.712904,9839.286531
310.570398,76.570323,76.570323,9839.286531
310.572934,19.142581,133.998066,9839.286531
310.575469,19.142581,248.853550,9896.714274
310.578005,57.427742,306.281293,9839.286531
310.580541,114.855485,191.425808,9954.142016
310.583076,19.142581,153.140646,9801.001370
310.585612,76.570323,114.855485,9762.716208
310.588147,76.570323,76.570323,9896.714274
310.590683,57.427742,57.427742,9781.858789
310.593219,57.427742,95.712904,9896.714274
310.595754,38.285162,191.425808,9915.856854
310.598290,76.570323,287.138712,9858.429112
310.600826,19.142581,248.853550,9858.429112
310.603361,19.142581,210.568389,9896.714274
310.605897,95.712904,95.712904,9896.714274
310.608433,76.570323,38.285162,9915.856854
310.610969,114.855485,95.712904,9781.858789
310.613504,76.570323,76.570323,9915.856854
310.616040,95.712904,133.998066,9762.716208
310.618576,57.427742,229.710970,9896.714274
310.621112,95.712904,287.138712,9801.001370
310.623647,38.285162,267.996131,9820.143950
310.626183,19.142581,133.998066,9858.429112
310.628719,38.285162,0.000000,10011.569758
310.631254,19.142581,57.427742,9934.999435
310.633790,76.570323,38.285162,9724.431046
310.636326,114.855485,133.998066,9915.856854
310.638862,114.855485,363.709035,9896.714274
310.641397,-19.142581,363.709035,9801.001370
310.643933,19.142581,248.853550,9839.286531
310.646469,57.427742,172.283227,9858.429112
310.649005,95.712904,19.142581,9896.714274
310.651540,57.427742,0.000000,9801.001370
310.654076,114.855485,76.570323,9781.858789
310.656612,95.712904,287.138712,9858.429112
310.659147,191.425808,287.138712,9877.571693
310.661683,95.712904,344.566454,9896.714274
310.664219,57.427742,287.138712,9839.286531
310.666755,57.427742,95.712904,9896.714274
310.669290,19.142581,0.000000,9877.571693
310.671826,38.285162,38.285162,9820.143950
310.674362,114.855485,95.712904,9781.858789
310.676898,76.570323,287.138712,9877.571693
310.679433,38.285162,344.566454,9877.571693
310.681969,19.142581,306.281293,9934.999435
310.684505,57.427742,287.138712,9781.858789
310.687040,19.142581,133.998066,9839.286531
310.689576,95.712904,57.427742,9896.714274
310.692112,172.283227,38.285162,9762.716208
310.694648,76.570323,172.283227,9820.143950
310.697183,38.285162,267.996131,9877.571693
310.699719,57.427742,306.281293,9896.714274
310.702211,19.142581,287.138712,9934.999435
310.704700,38.285162,229.710970,9915.856854
310.707188,133.998066,133.998066,9915.856854
310.709676,38.285162,57.427742,9762.716208
310.712164,57.427742,95.712904,9858.429112
310.714652,76.570323,153.140646,9762.716208
310.717141,114.855485,229.710970,9801.001370
310.719629,133.998066,363.709035,9915.856854
310.722117,38.285162,363.709035,9820.143950
310.724605,57.427742,306.281293,9896.714274
310.727094,38.285162,172.283227,9896.714274
310.729582,57.427742,95.712904,9781.858789
310.732070,114.855485,95.712904,9801.001370
310.734558,95.712904,114.855485,9820.143950
310.737046,76.570323,229.710970,9896.714274
310.739535,38.285162,267.996131,9858.429112
310.742023,76.570323,325.423874,9915.856854
310.744511,57.427742,172.283227,9934.999435
310.746999,95.712904,38.285162,9915.856854
310.749488,153.140646,95.712904,9820.143950
310.751976,76.570323,114.855485,9762.716208
310.754464,76.570323,172.283227,9839.286531
310.756952,95.712904,248.853550,9934.999435
310.759441,95.712904,229.710970,9858.429112
310.761929,76.570323,210.568389,9820.143950
310.764417,76.570323,172.283227,9858.429112
310.766905,57.427742,95.712904,9839.286531
310.769393,95.712904,95.712904,9801.001370
310.771882,114.855485,114.855485,9820.143950
310.774370,76.570323,172.283227,9820.143950
310.776858,114.855485,210.568389,9877.571693
310.779346,76.570323,210.568389,9858.429112
310.781835,76.570323,210.568389,9801.001370
310.784323,114.855485,191.425808,9934.999435
310.786811,114.855485,114.855485,9877.571693
310.789299,133.998066,114.855485,9858.429112
310.791787,19.142581,133.998066,9801.001370
310.794276,19.142581,133.998066,9839.286531
310.796764,76.570323,248.853550,9896.714274
310.799252,114.855485,172.283227,9877.571693
310.801751,76.570323,210.568389,9820.143950
310.804251,76.570323,172.283227,9762.716208
310.806750,153.140646,95.712904,9858.429112
310.809249,114.855485,57.427742,9801.001370
310.811749,57.427742,114.855485,9801.001370
310.814248,19.142581,229.710970,9934.999435
310.816747,19.142581,210.568389,9820.143950
310.819247,76.570323,210.568389,9820.143950
310.821746,19.142581,153.140646,9820.143950
310.824245,38.285162,114.855485,9915.856854
310.826745,114.855485,114.855485,9820.143950
310.829244,95.712904,153.140646,9743.573627
310.831743,95.712904,133.998066,9934.999435
310.834243,19.142581,153.140646,9801.001370
310.836742,57.427742,229.710970,9896.714274
310.839241,19.142581,172.283227,9934.999435
310.841741,38.285162,210.568389,9896.714274
310.844240,76.570323,172.283227,9877.571693
310.846739,76.570323,153.140646,9820.143950
310.849239,114.855485,114.855485,9762.716208
310.851738,76.570323,172.283227,9801.001370
310.854237,114.855485,191.425808,9973.284597
310.856737,76.570323,210.568389,9801.001370
310.859236,76.570323,191.425808,9877.571693
310.861735,76.570323,210.568389,9877.571693
310.864235,19.142581,133.998066,9896.714274
310.866734,114.855485,133.998066,9915.856854
310.869233,114.855485,95.712904,9839.286531
310.871733,76.570323,210.568389,9762.716208
310.874232,57.427742,306.281293,9801.001370
310.876731,57.427742,229.710970,9896.714274
310.879231,76.570323,153.140646,9762.716208
310.881730,76.570323,210.568389,9839.286531
310.884229,38.285162,114.855485,9915.856854
310.886729,19.142581,153.140646,9839.286531
310.889228,76.570323,210.568389,9820.143950
310.891727,19.142581,172.283227,9839.286531
310.894227,57.427742,210.568389,9877.571693
310.896726,19.142581,191.425808,9896.714274
310.899225,95.712904,287.138712,9839.286531
310.901734,38.285162,267.996131,9820.143950
310.904242,114.855485,172.283227,9877.571693
310.906751,57.427742,133.998066,9934.999435
310.909259,95.712904,114.855485,9839.286531
310.911768,114.855485,172.283227,9877.571693
310.914276,38.285162,267.996131,9877.571693
310.916785,95.712904,229.710970,9839.286531
310.919294,114.855485,287.138712,9896.714274
310.921802,76.570323,172.283227,9858.429112
310.924311,57.427742,114.855485,9915.856854
310.926819,57.427742,95.712904,9839.286531
310.929328,76.570323,114.855485,9877.571693
310.931836,-0.000000,191.425808,9858.429112
310.934345,76.570323,287.138712,9858.429112
310.936853,-0.000000,229.710970,9896.714274
310.939362,76.570323,210.568389,9820.143950
310.941870,76.570323,114.855485,9877.571693
310.944379,-0.000000,114.855485,9896.714274
310.946887,57.427742,114.855485,9801.001370
310.949396,210.568389,172.283227,9801.001370
310.951904,38.285162,133.998066,9839.286531
310.954413,95.712904,248.853550,9934.999435
310.956921,19.142581,191.425808,9839.286531
310.959430,57.427742,229.710970,9839.286531
310.961938,19.142581,153.140646,9820.143950
310.964447,76.570323,114.855485,9858.429112
310.966955,133.998066,38.285162,9781.858789
310.969464,76.570323,114.855485,9801.001370
310.971972,19.142581,191.425808,9858.429112
310.974481,57.427742,153.140646,9877.571693
310.976989,76.570323,172.283227,9839.286531
310.979498,19.142581,153.140646,9896.714274
310.982006,57.427742,114.855485,9896.714274
310.984515,57.427742,95.712904,9896.714274
310.987023,153.140646,95.712904,9801.001370
310.989532,57.427742,114.855485,9781.858789
310.992041,76.570323,191.425808,9839.286531
310.994549,19.142581,153.140646,9839.286531
310.997058,38.285162,248.853550,9877.571693
310.999566,38.285162,172.283227,9915.856854
311.002038,19.142581,114.855485,9934.999435
311.004510,153.140646,95.712904,9896.714274
311.006983,38.285162,133.998066,9801.001370
311.009455,95.712904,153.140646,9877.571693
311.011927,57.427742,210.568389,9954.142016
311.014399,76.570323,210.568389,9877.571693
311.016871,76.570323,229.710970,9820.143950
311.019344,57.427742,191.425808,9762.716208
311.021816,38.285162,76.570323,9877.571693
311.024288,-19.142581,133.998066,9781.858789
311.026760,114.855485,95.712904,9839.286531
311.029232,19.142581,172.283227,9858.429112
311.031705,76.570323,229.710970,9820.143950
311.034177,95.712904,210.568389,9877.571693
311.036649,172.283227,248.853550,9877.571693
311.039121,57.427742,287.138712,9801.001370
311.041593,114.855485,172.283227,9877.571693
311.044066,19.142581,133.998066,9896.714274
311.046538,153.140646,57.427742,9858.429112
311.049010,76.570323,114.855485,9877.571693
311.051482,114.855485,114.855485,9839.286531
311.053954,95.712904,172.283227,9762.716208
311.056427,19.142581,191.425808,9896.714274
311.058899,57.427742,191.425808,9934.999435
311.061371,114.855485,76.570323,9915.856854
311.063843,114.855485,114.855485,9858.429112
311.066315,76.570323,210.568389,9839.286531
311.068788,19.142581,95.712904,9877.571693
311.071260,76.570323,229.710970,9820.143950
311.073732,57.427742,287.138712,9820.143950
311.076204,133.998066,248.853550,9801.001370
311.078676,76.570323,248.853550,9724.431046
311.081149,38.285162,172.283227,9915.856854
311.083621,57.427742,114.855485,9858.429112
311.086093,19.142581,153.140646,9801.001370
311.088565,57.427742,95.712904,9858.429112
311.091038,76.570323,229.710970,9839.286531
311.093510,57.427742,287.138712,9839.286531
311.095982,57.427742,287.138712,9801.001370
311.098454,76.570323,287.138712,9762.716208
311.100943,76.570323,210.568389,9858.429112
311.103432,57.427742,114.855485,9781.858789
311.105921,114.855485,114.855485,9858.429112
311.108411,19.142581,172.283227,9839.286531
311.110900,76.570323,114.855485,9877.571693
311.113389,76.570323,229.710970,9820.143950
311.115878,57.427742,229.710970,9839.286531
311.118367,19.142581,191.425808,9839.286531
311.120856,76.570323,191.425808,9858.429112
311.123345,57.427742,57.427742,9801.001370
311.125834,38.285162,133.998066,9877.571693
311.128323,76.570323,172.283227,9858.429112
311.130812,76.570323,172.283227,9820.143950
311.133301,19.142581,229.710970,9820.143950
311.135791,95.712904,287.138712,9896.714274
311.138280,76.570323,229.710970,9877.571693
311.140769,57.427742,133.998066,9934.999435
311.143258,114.855485,153.140646,9858.429112
311.145747,76.570323,172.283227,9858.429112
311.148236,57.427742,95.712904,9839.286531
311.150725,57.427742,153.140646,9877.571693
311.153214,95.712904,229.710970,9839.286531
311.155703,57.427742,153.140646,9973.284597
311.158192,57.427742,153.140646,9877.571693
311.160682,76.570323,172.283227,9762.716208
311.163171,57.427742,95.712904,9820.143950
311.165660,95.712904,114.855485,9762.716208
311.168149,95.712904,153.140646,9762.716208
311.170638,19.142581,191.425808,9801.001370
311.173127,38.285162,210.568389,9877.571693
311.175616,38.285162,267.996131,9762.716208
311.178105,76.570323,114.855485,9896.714274
311.180594,114.855485,114.855485,9915.856854
311.183083,38.285162,38.285162,9896.714274
311.185573,114.855485,114.855485,9762.716208
311.188062,114.855485,229.710970,9858.429112
311.190551,76.570323,210.568389,9877.571693
311.193040,76.570323,229.710970,9820.143950
311.195529,95.712904,191.425808,9934.999435
311.198018,19.142581,57.427742,9934.999435
311.200521,114.855485,114.855485,9877.571693
311.203025,57.427742,114.855485,9781.858789
311.205528,191.425808,153.140646,9820.143950
311.208031,95.712904,172.283227,9820.143950
311.210534,19.142581,248.853550,9896.714274
311.213038,38.285162,248.853550,9858.429112
311.215541,38.285162,229.710970,9801.001370
311.218044,19.142581,133.998066,9896.714274
311.220548,114.855485,76.570323,9915.856854
311.223051,76.570323,114.855485,9858.429112
311.225554,19.142581,114.855485,9801.001370
311.228057,95.712904,229.710970,9877.571693
311.230561,57.427742,287.138712,9801.001370
311.233064,38.285162,363.709035,9877.571693
311.235567,114.855485,114.855485,9820.143950
311.238071,153.140646,38.285162,9896.714274
311.240574,153.140646,38.285162,9858.429112
311.243077,-0.000000,133.998066,9896.714274
311.245580,19.142581,248.853550,9781.858789
311.248084,57.427742,229.710970,9896.714274
311.250587,38.285162,248.853550,9762.716208
311.253090,76.570323,287.138712,9820.143950
311.255593,19.142581,133.998066,9896.714274
311.258097,57.427742,95.712904,9801.001370
311.260600,57.427742,95.712904,9781.858789
311.263103,57.427742,95.712904,9858.429112
311.265607,76.570323,248.853550,9801.001370
311.268110,76.570323,325.423874,9801.001370
311.270613,57.427742,363.709035,9801.001370
311.273116,172.283227,325.423874,9820.143950
311.275620,95.712904,95.712904,9839.286531
311.278123,133.998066,76.570323,9973.284597
311.280626,38.285162,38.285162,9858.429112
311.283130,19.142581,133.998066,9858.429112
311.285633,114.855485,229.710970,9858.429112
311.288136,114.855485,267.996131,9915.856854
311.290639,19.142581,287.138712,9934.999435
311.293143,57.427742,248.853550,9934.999435
311.295646,19.142581,95.712904,9877.571693
311.298149,19.142581,95.712904,9858.429112
311.300664,153.140646,38.285162,9896.714274
311.303179,57.427742,114.855485,9820.143950
311.305694,57.427742,287.138712,9896.714274
311.308209,76.570323,248.853550,9915.856854
311.310724,95.712904,287.138712,9801.001370
311.313239,76.570323,172.283227,9820.143950
311.315753,76.570323,114.855485,9877.571693
311.318268,114.855485,76.570323,9915.856854
311.320783,38.285162,57.427742,9820.143950
311.323298,76.570323,210.568389,9820.143950
311.325813,57.427742,287.138712,9858.429112
311.328328,57.427742,229.710970,9801.001370
311.330843,114.855485,229.710970,9820.143950
311.333358,76.570323,210.568389,9858.429112
311.335872,19.142581,57.427742,9934.999435
311.338387,172.283227,95.712904,9896.714274
311.340902,38.285162,38.285162,9858.429112
311.343417,38.285162,76.570323,9762.716208
311.345932,76.570323,210.568389,9877.571693
311.348447,57.427742,248.853550,9934.999435
311.350962,57.427742,287.138712,9839.286531
311.353477,133.998066,248.853550,9934.999435
311.355991,38.285162,76.570323,9858.429112
311.358506,76.570323,76.570323,9724.431046
311.361021,114.855485,76.570323,9724.431046
311.363536,57.427742,95.712904,9724.431046
311.366051,172.283227,287.138712,9858.429112
311.368566,38.285162,229.710970,9915.856854
311.371081,-19.142581,363.709035,9858.429112
311.373596,57.427742,287.138712,9896.714274
311.376110,57.427742,114.855485,9801.001370
311.378625,133.998066,95.712904,9801.001370
311.381140,38.285162,133.998066,9858.429112
311.383655,19.142581,172.283227,9839.286531
311.386170,38.285162,191.425808,9896.714274
311.388685,76.570323,114.855485,9877.571693
311.391200,114.855485,306.281293,9839.286531
311.393715,76.570323,210.568389,9820.143950
311.396229,76.570323,38.285162,9896.714274
311.398744,95.712904,95.712904,9858.429112
311.401268,38.285162,38.285162,9839.286531
311.403792,133.998066,172.283227,9762.716208
311.406316,95.712904,229.710970,9858.429112
311.408840,57.427742,287.138712,9896.714274
311.411364,57.427742,229.710970,9896.714274
311.413888,-19.142581,133.998066,9896.714274
311.416412,57.427742,95.712904,9820.143950
311.418936,153.140646,114.855485,9801.001370
311.421460,57.427742,95.712904,9801.001370
311.423984,114.855485,114.855485,9762.716208
311.426507,133.998066,287.138712,9801.001370
311.429031,38.285162,210.568389,9954.142016
311.431555,57.427742,306.281293,9858.429112
311.434079,57.427742,95.712904,9781.858789
311.436603,76.570323,114.855485,9858.429112
311.439127,114.855485,76.570323,9781.858789
311.441651,114.855485,0.000000,9858.429112
311.444175,76.570323,210.568389,9858.429112
311.446699,95.712904,287.138712,9801.001370
311.449223,57.427742,325.423874,9896.714274
311.451747,76.570323,210.568389,9858.429112
311.454271,114.855485,114.855485,9839.286531
311.456795,133.998066,76.570323,9915.856854
311.459318,38.285162,0.000000,9781.858789
311.461842,57.427742,95.712904,9781.858789
311.464366,76.570323,210.568389,9858.429112
311.466890,19.142581,248.853550,9896.714274
311.469414,57.427742,287.138712,9896.714274
311.471938,191.425808,210.568389,9877.571693
311.474462,95.712904,95.712904,9858.429112
311.476986,153.140646,95.712904,9839.286531
311.479510,38.285162,133.998066,9762.716208
311.482034,19.142581,191.425808,9781.858789
311.484558,19.142581,153.140646,9801.001370
311.487082,19.142581,248.853550,9915.856854
311.489606,19.142581,191.425808,9954.142016
311.492130,76.570323,172.283227,9858.429112
311.494653,38.285162,76.570323,9877.571693
311.497177,-19.142581,172.283227,9781.858789
311.499701,57.427742,76.570323,9839.286531
311.502232,19.142581,172.283227,9801.001370
311.504764,19.142581,153.140646,9820.143950
311.507295,153.140646,172.283227,9934.999435
311.509826,76.570323,210.568389,9820.143950
311.512357,76.570323,172.283227,9762.716208
311.514888,38.285162,133.998066,9839.286531
311.517419,95.712904,76.570323,9915.856854
311.519950,76.570323,114.855485,9858.429112
311.522481,76.570323,114.855485,9877.571693
311.525013,76.570323,191.425808,9820.143950
311.527544,57.427742,248.853550,9877.571693
311.530075,38.285162,76.570323,9820.143950
311.532606,114.855485,114.855485,9896.714274
311.535137,19.142581,133.998066,9839.286531
311.537668,76.570323,76.570323,9915.856854
311.540199,57.427742,95.712904,9801.001370
311.542730,19.142581,191.425808,9896.714274
311.545261,57.427742,133.998066,9934.999435
311.547793,-0.000000,153.140646,9839.286531
311.550324,114.855485,172.283227,9762.716208
311.552855,133.998066,229.710970,9820.143950
311.555386,19.142581,172.283227,9801.001370
311.557917,38.285162,76.570323,9858.429112
311.560448,76.570323,114.855485,9858.429112
311.562979,76.570323,76.570323,9896.714274
311.565510,19.142581,210.568389,9839.286531
311.568042,38.285162,229.710970,9915.856854
311.570573,95.712904,210.568389,9762.716208
311.573104,76.570323,153.140646,9801.001370
311.575635,38.285162,38.285162,9877.571693
311.578166,57.427742,95.712904,9820.143950
311.580697,38.285162,133.998066,9877.571693
311.583228,76.570323,172.283227,9858.429112
311.585759,19.142581,172.283227,9896.714274
311.588291,19.142581,191.425808,9839.286531
311.590822,57.427742,153.140646,9934.999435
311.593353,76.570323,153.140646,9762.716208
311.595884,153.140646,95.712904,9801.001370
311.598415,57.427742,133.998066,9877.571693
311.600946,57.427742,57.427742,9896.714274
311.603483,19.142581,153.140646,9820.143950
311.606019,191.425808,210.568389,9877.571693
311.608555,-57.427742,248.853550,9820.143950
311.611092,114.855485,229.710970,9801.001370
311.613628,76.570323,153.140646,9820.143950
311.616164,57.427742,114.855485,9858.429112
311.618701,76.570323,210.568389,9820.143950
311.621237,76.570323,76.570323,9915.856854
311.623773,-0.000000,153.140646,9839.286531
311.626310,57.427742,191.425808,9934.999435
311.628846,76.570323,229.710970,9820.143950
311.631382,95.712904,210.568389,9839.286531
311.633919,76.570323,210.568389,9801.001370
311.636455,95.712904,172.283227,9820.143950
311.638991,57.427742,95.712904,9839.286531
311.641528,57.427742,95.712904,9839.286531
311.644064,76.570323,114.855485,9762.716208
311.646601,114.855485,229.710970,9858.429112
311.649137,95.712904,248.853550,9934.999435
311.651673,76.570323,229.710970,9839.286531
311.654210,57.427742,114.855485,9801.001370
311.656746,114.855485,153.140646,9762.716208
311.659282,76.570323,114.855485,9839.286531
311.661819,153.140646,95.712904,9801.001370
311.664355,57.427742,95.712904,9896.714274
311.666891,114.855485,191.425808,9915.856854
311.669428,76.570323,229.710970,9820.143950
311.671964,57.427742,287.138712,9858.429112
311.674500,114.855485,114.855485,9839.286531
311.677037,57.427742,95.712904,9896.714274
311.679573,38.285162,76.570323,9820.143950
311.682109,76.570323,172.283227,9877.571693
311.684646,114.855485,210.568389,9820.143950
311.687182,-57.427742,306.281293,9934.999435
311.689719,76.570323,267.996131,9915.856854
311.692255,19.142581,210.568389,9839.286531
311.694791,95.712904,153.140646,9839.286531
311.697328,38.285162,76.570323,9858.429112
311.699864,57.427742,57.427742,9781.858789
311.702400,57.427742,95.712904,9839.286531
311.704943,76.570323,172.283227,9877.571693
311.707484,57.427742,306.281293,9839.286531
311.710025,114.855485,344.566454,9896.714274
311.712566,95.712904,229.710970,9781.858789
311.715107,95.712904,153.140646,9820.143950
311.717648,38.285162,57.427742,9839.286531
311.720190,38.285162,38.285162,9820.143950
311.722731,95.712904,95.712904,9801.001370
311.725272,57.427742,248.853550,9934.999435
311.727813,38.285162,382.851616,9801.001370
311.730354,57.427742,401.994197,9781.858789
311.732895,57.427742,153.140646,9934.999435
311.735436,114.855485,0.000000,9896.714274
311.737977,114.855485,57.427742,9858.429112
311.740518,57.427742,95.712904,9839.286531
311.743059,76.570323,191.425808,9762.716208
311.745601,38.285162,363.709035,9820.143950
311.748142,57.427742,325.423874,9896.714274
311.750683,95.712904,248.853550,9915.856854
311.753224,133.998066,76.570323,9915.856854
311.755765,38.285162,38.285162,9877.571693
311.758306,38.285162,19.142581,9839.286531
311.760847,57.427742,57.427742,9781.858789
311.763388,133.998066,172.283227,9839.286531
311.765929,57.427742,401.994197,9896.714274
311.768470,57.427742,344.566454,9896.714274
311.771012,76.570323,229.710970,9858.429112
311.773553,57.427742,0.000000,9858.429112
311.776094,114.855485,-133.998066,9839.286531
311.778635,76.570323,-95.712904,9858.429112
