#time,accel_x,accel_y,accel_z
385.794034,95.712904,114.855485,9877.571693
385.797056,38.285162,248.853550,9858.429112
385.800078,153.140646,153.140646,9934.999435
385.803100,76.570323,172.283227,9801.001370
385.806122,57.427742,153.140646,9915.856854
385.809144,57.427742,114.855485,9858.429112
385.812166,95.712904,287.138712,9801.001370
385.815188,76.570323,229.710970,9801.001370
385.818209,76.570323,248.853550,9858.429112
385.821231,76.570323,210.568389,9877.571693
385.824253,19.142581,248.853550,9896.714274
385.827275,19.142581,133.998066,9896.714274
385.830297,38.285162,38.285162,9858.429112
385.833319,114.855485,191.425808,9934.999435
385.836341,57.427742,133.998066,9877.571693
385.839363,19.142581,191.425808,9801.001370
385.842385,172.283227,306.281293,9915.856854
385.845407,133.998066,172.283227,9801.001370
385.848428,38.285162,76.570323,9686.145885
385.851450,57.427742,76.570323,9801.001370
385.854472,172.283227,0.000000,9781.858789
385.857494,133.998066,172.283227,9762.716208
385.860516,95.712904,248.853550,9992.427178
385.863538,76.570323,267.996131,9915.856854
385.866560,38.285162,114.855485,9915.856854
385.869582,114.855485,76.570323,9915.856854
385.872604,133.998066,76.570323,9954.142016
385.875426,76.570323,172.283227,9820.143950
385.878249,57.427742,133.998066,9877.571693
385.881071,57.427742,248.853550,9992.427178
385.883894,-76.570323,114.855485,9724.431046
385.886717,76.570323,210.568389,9762.716208
385.889539,76.570323,210.568389,9762.716208
385.892362,76.570323,114.855485,9762.716208
385.895184,76.570323,114.855485,9801.001370
385.898007,-0.000000,133.998066,9839.286531
385.900830,-0.000000,153.140646,9781.858789
385.903652,57.427742,153.140646,9724.431046
385.906475,191.425808,153.140646,9781.858789
385.909297,133.998066,229.710970,9801.001370
385.912120,95.712904,210.568389,9934.999435
385.914943,38.285162,172.283227,9973.284597
385.917765,-0.000000,191.425808,9896.714274
385.920588,95.712904,210.568389,9877.571693
385.923410,76.570323,210.568389,9877.571693
385.926233,57.427742,153.140646,9934.999435
385.929056,153.140646,95.712904,9896.714274
385.931878,76.570323,191.425808,9858.429112
385.934701,76.570323,172.283227,9858.429112
385.937523,114.855485,172.283227,9839.286531
385.940346,133.998066,210.568389,9858.429112
385.943169,76.570323,210.568389,9762.716208
385.945991,76.570323,153.140646,9781.858789
385.948814,19.142581,153.140646,9801.001370
385.951636,57.427742,114.855485,9781.858789
385.954459,19.142581,191.425808,9801.001370
385.957282,76.570323,76.570323,9915.856854
385.960104,76.570323,114.855485,9839.286531
385.962927,76.570323,114.855485,9877.571693
385.965749,19.142581,248.853550,9781.858789
385.968572,19.142581,133.998066,9781.858789
385.971395,114.855485,172.283227,9877.571693
385.974217,153.140646,133.998066,9934.999435
385.977040,95.712904,153.140646,9877.571693
385.979862,76.570323,191.425808,9877.571693
385.982685,76.570323,229.710970,9858.429112
385.985508,38.285162,172.283227,9896.714274
385.988212,95.712904,172.283227,9877.571693
385.990916,114.855485,248.853550,9896.714274
385.993620,19.142581,248.853550,9896.714274
385.996324,76.570323,210.568389,9877.571693
385.999027,57.427742,191.425808,9858.429112
386.001731,76.570323,172.283227,9858.429112
386.004435,95.712904,95.712904,9801.001370
386.007139,-19.142581,153.140646,9839.286531
386.009843,76.570323,172.283227,9839.286531
386.012547,76.570323,172.283227,9820.143950
386.015251,38.285162,133.998066,9801.001370
386.017955,57.427742,95.712904,9801.001370
386.020659,-19.142581,76.570323,9858.429112
386.023363,57.427742,114.855485,9896.714274
386.026067,95.712904,114.855485,9801.001370
386.028771,76.570323,114.855485,9858.429112
386.031475,95.712904,172.283227,9877.571693
386.034179,114.855485,210.568389,9839.286531
386.036883,114.855485,114.855485,9801.001370
386.039587,95.712904,229.710970,9896.714274
386.042291,191.425808,248.853550,9896.714274
386.044995,38.285162,133.998066,9877.571693
386.047699,76.570323,76.570323,9973.284597
386.050403,38.285162,19.142581,10068.997501
386.053107,114.855485,191.425808,9934.999435
386.055811,38.285162,382.851616,9858.429112
386.058515,191.425808,363.709035,9877.571693
386.061219,38.285162,172.283227,9647.860723
386.063923,57.427742,95.712904,9858.429112
386.066627,133.998066,38.285162,9992.427178
386.069330,-133.998066,133.998066,9686.145885
386.072034,-0.000000,325.423874,9781.858789
386.074738,306.281293,306.281293,9877.571693
386.077442,-19.142581,172.283227,9705.288466
386.080146,-0.000000,248.853550,9839.286531
386.082850,19.142581,133.998066,9781.858789
386.085554,-19.142581,133.998066,9743.573627
386.088258,95.712904,267.996131,9992.427178
386.090962,19.142581,172.283227,9781.858789
386.093666,114.855485,287.138712,9820.143950
386.096034,57.427742,153.140646,9934.999435
386.098403,57.427742,153.140646,9954.142016
386.100771,95.712904,306.281293,10107.282662
386.103139,76.570323,153.140646,9858.429112
386.105507,76.570323,287.138712,9858.429112
386.107876,172.283227,210.568389,9954.142016
386.110244,38.285162,38.285162,9820.143950
386.112612,172.283227,287.138712,9858.429112
386.114980,76.570323,191.425808,9858.429112
386.117349,19.142581,267.996131,9781.858789
386.119717,114.855485,248.853550,9954.142016
386.122085,-57.427742,57.427742,9762.716208
386.124453,38.285162,229.710970,9686.145885
386.126821,153.140646,95.712904,9801.001370
386.129190,-133.998066,38.285162,9781.858789
386.131558,114.855485,229.710970,9877.571693
386.133926,-57.427742,133.998066,9839.286531
386.136294,19.142581,153.140646,9781.858789
386.138663,153.140646,153.140646,9954.142016
386.141031,38.285162,76.570323,9839.286531
386.143399,38.285162,248.853550,9839.286531
386.145767,114.855485,172.283227,9934.999435
386.148136,-57.427742,133.998066,9762.716208
386.150504,133.998066,229.710970,9839.286531
386.152872,76.570323,114.855485,9858.429112
386.155240,76.570323,229.710970,9877.571693
386.157609,191.425808,95.712904,9973.284597
386.159977,38.285162,38.285162,9877.571693
386.162345,114.855485,344.566454,9896.714274
386.164713,76.570323,114.855485,9801.001370
386.167082,38.285162,76.570323,9762.716208
386.169450,114.855485,133.998066,9954.142016
386.171818,38.285162,76.570323,9762.716208
386.174186,19.142581,210.568389,9801.001370
386.176554,153.140646,133.998066,9858.429112
386.178923,-95.712904,57.427742,9705.288466
386.181291,210.568389,153.140646,9781.858789
386.183659,172.283227,95.712904,9820.143950
386.186027,-19.142581,133.998066,9762.716208
386.188396,153.140646,191.425808,9992.427178
386.190838,19.142581,57.427742,9743.573627
386.193280,133.998066,248.853550,9858.429112
386.195722,133.998066,114.855485,9877.571693
386.198164,-0.000000,57.427742,9820.143950
386.200606,114.855485,172.283227,10068.997501
386.203048,-57.427742,95.712904,9877.571693
386.205491,95.712904,287.138712,9762.716208
386.207933,229.710970,210.568389,10011.569758
386.210375,114.855485,95.712904,9801.001370
386.212817,95.712904,229.710970,9839.286531
386.215259,19.142581,133.998066,9781.858789
386.217701,38.285162,76.570323,9877.571693
386.220143,133.998066,287.138712,9973.284597
386.222586,38.285162,114.855485,9724.431046
386.225028,114.855485,210.568389,9686.145885
386.227470,210.568389,153.140646,9801.001370
386.229912,-19.142581,133.998066,9743.573627
386.232354,38.285162,325.423874,9839.286531
386.234796,-0.000000,191.425808,9781.858789
386.237238,57.427742,248.853550,9743.573627
386.239681,172.283227,153.140646,9934.999435
386.242123,57.427742,95.712904,9801.001370
386.244565,153.140646,287.138712,9896.714274
386.247007,76.570323,248.853550,9915.856854
386.249449,19.142581,191.425808,9896.714274
386.251891,172.283227,248.853550,9934.999435
386.254333,76.570323,114.855485,9762.716208
386.256776,133.998066,172.283227,9801.001370
386.259218,172.283227,133.998066,10011.569758
386.261660,-19.142581,133.998066,9858.429112
386.264102,76.570323,478.564520,9877.571693
386.266544,76.570323,287.138712,9877.571693
386.268986,-0.000000,153.140646,9781.858789
386.271428,133.998066,306.281293,9973.284597
386.273871,57.427742,95.712904,9839.286531
386.276313,-0.000000,229.710970,9724.431046
386.278755,95.712904,153.140646,9801.001370
386.281197,19.142581,153.140646,9781.858789
386.283639,57.427742,306.281293,9896.714274
386.286081,95.712904,95.712904,9781.858789
386.288572,38.285162,191.425808,9781.858789
386.291052,114.855485,210.568389,9934.999435
386.293532,19.142581,133.998066,9781.858789
386.296011,76.570323,287.138712,9877.571693
386.298491,114.855485,153.140646,9934.999435
386.300971,-76.570323,57.427742,9858.429112
386.303450,114.855485,267.996131,9915.856854
386.305930,76.570323,114.855485,9839.286531
386.308410,114.855485,229.710970,9839.286531
386.310890,95.712904,267.996131,9954.142016
386.313369,19.142581,95.712904,9743.573627
386.315849,76.570323,325.423874,9915.856854
386.318329,153.140646,95.712904,9896.714274
386.320809,114.855485,95.712904,9781.858789
386.323288,95.712904,287.138712,9896.714274
386.325768,76.570323,76.570323,9686.145885
386.328248,19.142581,267.996131,9801.001370
386.330727,95.712904,133.998066,9934.999435
386.333207,-19.142581,19.142581,9801.001370
386.335687,76.570323,210.568389,9801.001370
386.338167,95.712904,95.712904,9781.858789
386.340646,19.142581,153.140646,9781.858789
386.343126,-19.142581,210.568389,9973.284597
386.345606,38.285162,38.285162,9820.143950
386.348086,38.285162,248.853550,9915.856854
386.350565,76.570323,133.998066,9915.856854
386.353045,19.142581,95.712904,9762.716208
386.355525,133.998066,229.710970,9839.286531
386.358004,57.427742,38.285162,9801.001370
386.360484,-19.142581,153.140646,9896.714274
386.362964,114.855485,95.712904,10088.140082
386.365444,57.427742,114.855485,9820.143950
386.367923,153.140646,325.423874,9877.571693
386.370403,153.140646,95.712904,9839.286531
386.372883,76.570323,19.142581,9781.858789
386.375363,133.998066,153.140646,10068.997501
386.377842,-0.000000,95.712904,9743.573627
386.380322,-57.427742,325.423874,9820.143950
386.382802,114.855485,76.570323,9915.856854
386.385281,38.285162,76.570323,9743.573627
386.387781,95.712904,210.568389,9839.286531
386.390280,76.570323,95.712904,9743.573627
386.392779,-0.000000,76.570323,9762.716208
386.395278,153.140646,191.425808,9992.427178
386.397777,57.427742,57.427742,9781.858789
386.400276,76.570323,210.568389,9820.143950
386.402775,133.998066,76.570323,9954.142016
386.405274,-95.712904,57.427742,9762.716208
386.407773,76.570323,267.996131,9973.284597
386.410272,133.998066,229.710970,9801.001370
386.412771,19.142581,306.281293,9743.573627
386.415270,95.712904,172.283227,9954.142016
386.417769,19.142581,114.855485,9762.716208
386.420268,114.855485,191.425808,9934.999435
386.422768,76.570323,153.140646,9858.429112
386.425267,19.142581,153.140646,9858.429112
386.427766,191.425808,267.996131,9954.142016
386.430265,38.285162,153.140646,9724.431046
386.432764,76.570323,229.710970,9839.286531
386.435263,133.998066,210.568389,9877.571693
386.437762,-57.427742,95.712904,9743.573627
386.440261,57.427742,287.138712,9858.429112
386.442760,76.570323,153.140646,9858.429112
386.445259,-19.142581,76.570323,9762.716208
386.447758,19.142581,325.423874,10011.569758
386.450257,-19.142581,114.855485,9724.431046
386.452756,76.570323,287.138712,9762.716208
386.455256,133.998066,229.710970,9858.429112
386.457755,57.427742,57.427742,9781.858789
386.460254,191.425808,229.710970,9992.427178
386.462753,76.570323,114.855485,9762.716208
386.465252,76.570323,172.283227,9820.143950
386.467751,229.710970,210.568389,10030.712339
386.470250,76.570323,172.283227,9820.143950
386.472749,229.710970,325.423874,9877.571693
386.475248,114.855485,153.140646,9820.143950
386.477747,-38.285162,19.142581,9820.143950
386.480246,133.998066,325.423874,9915.856854
386.482745,57.427742,95.712904,9781.858789
386.485244,76.570323,210.568389,9762.716208
386.487752,114.855485,191.425808,9973.284597
386.490260,-76.570323,76.570323,9801.001370
386.492767,133.998066,229.710970,9877.571693
386.495275,57.427742,153.140646,9915.856854
386.497783,-76.570323,114.855485,9705.288466
386.500290,19.142581,306.281293,9992.427178
386.502798,-19.142581,76.570323,9686.145885
386.505306,95.712904,191.425808,9762.716208
386.507813,153.140646,133.998066,9973.284597
386.510321,-76.570323,133.998066,9762.716208
386.512829,57.427742,306.281293,9896.714274
386.515336,76.570323,172.283227,9801.001370
386.517844,76.570323,172.283227,9820.143950
386.520352,153.140646,133.998066,10011.569758
386.522859,-0.000000,114.855485,9724.431046
386.525367,19.142581,267.996131,9801.001370
386.527875,76.570323,153.140646,9858.429112
386.530382,38.285162,38.285162,9762.716208
386.532890,76.570323,248.853550,10030.712339
386.535398,38.285162,76.570323,9801.001370
386.537905,153.140646,114.855485,9820.143950
386.540413,114.855485,210.568389,9992.427178
386.542921,76.570323,57.427742,9724.431046
386.545428,76.570323,172.283227,9839.286531
386.547936,19.142581,133.998066,9781.858789
386.550444,57.427742,95.712904,9781.858789
386.552951,57.427742,172.283227,9992.427178
386.555459,19.142581,57.427742,9667.003304
386.557967,191.425808,248.853550,9858.429112
386.560474,57.427742,95.712904,9839.286531
386.562982,19.142581,95.712904,9743.573627
386.565490,95.712904,306.281293,9896.714274
386.567997,76.570323,114.855485,9820.143950
386.570505,76.570323,76.570323,9781.858789
386.573013,95.712904,114.855485,9992.427178
386.575520,76.570323,57.427742,9705.288466
386.578028,191.425808,287.138712,9877.571693
386.580536,19.142581,153.140646,9839.286531
386.583043,76.570323,76.570323,9724.431046
386.585551,153.140646,248.853550,9934.999435
386.588062,76.570323,114.855485,9858.429112
386.590573,19.142581,191.425808,9896.714274
386.593084,95.712904,153.140646,9934.999435
386.595595,19.142581,95.712904,9705.288466
386.598106,19.142581,191.425808,9915.856854
386.600618,19.142581,133.998066,9820.143950
386.603129,57.427742,153.140646,9743.573627
386.605640,-0.000000,210.568389,10011.569758
386.608151,57.427742,95.712904,9781.858789
386.610662,38.285162,287.138712,9858.429112
386.613173,114.855485,153.140646,9877.571693
386.615684,19.142581,57.427742,9705.288466
386.618195,114.855485,210.568389,9934.999435
386.620706,38.285162,76.570323,9762.716208
386.623217,-57.427742,325.423874,9839.286531
386.625728,95.712904,248.853550,9992.427178
386.628239,38.285162,153.140646,9667.003304
386.630750,172.283227,248.853550,9934.999435
386.633262,114.855485,76.570323,9954.142016
386.635773,-38.285162,57.427742,9705.288466
386.638284,38.285162,248.853550,10011.569758
386.640795,114.855485,153.140646,9628.718142
386.643306,95.712904,306.281293,9820.143950
386.645817,57.427742,191.425808,10011.569758
386.648328,38.285162,172.283227,9705.288466
386.650839,153.140646,287.138712,9858.429112
386.653350,76.570323,114.855485,9820.143950
386.655861,38.285162,172.283227,9686.145885
386.658372,95.712904,191.425808,9934.999435
386.660883,38.285162,153.140646,9628.718142
386.663394,95.712904,248.853550,9954.142016
386.665905,172.283227,172.283227,10011.569758
386.668417,114.855485,114.855485,9781.858789
386.670928,191.425808,344.566454,9954.142016
386.673439,19.142581,191.425808,9781.858789
386.675950,-0.000000,95.712904,9743.573627
386.678461,95.712904,172.283227,10049.854920
386.680972,76.570323,76.570323,9705.288466
386.683483,267.996131,382.851616,9934.999435
386.685994,133.998066,172.283227,9877.571693
386.688506,57.427742,153.140646,9762.716208
386.691018,153.140646,248.853550,9954.142016
386.693530,76.570323,76.570323,9724.431046
386.696042,-0.000000,287.138712,9877.571693
386.698554,191.425808,191.425808,10088.140082
386.701066,38.285162,76.570323,9571.290400
386.703578,248.853550,248.853550,9858.429112
386.706089,133.998066,133.998066,9801.001370
386.708601,19.142581,114.855485,9743.573627
386.711113,114.855485,267.996131,9992.427178
386.713625,-19.142581,172.283227,9686.145885
386.716137,76.570323,172.283227,9762.716208
386.718649,57.427742,133.998066,9954.142016
386.721161,-0.000000,57.427742,9762.716208
386.723673,114.855485,191.425808,9877.571693
386.726185,38.285162,133.998066,9820.143950
386.728697,76.570323,248.853550,9762.716208
386.731209,153.140646,191.425808,9992.427178
386.733721,-19.142581,114.855485,9686.145885
386.736232,191.425808,210.568389,9896.714274
386.738744,95.712904,133.998066,9915.856854
386.741256,19.142581,57.427742,9762.716208
386.743768,114.855485,248.853550,9934.999435
386.746280,19.142581,95.712904,9686.145885
386.748792,95.712904,172.283227,9762.716208
386.751304,191.425808,95.712904,10049.854920
386.753816,38.285162,38.285162,9762.716208
386.756328,76.570323,114.855485,9877.571693
386.758840,57.427742,133.998066,9858.429112
386.761352,57.427742,95.712904,9781.858789
386.763864,95.712904,191.425808,9954.142016
386.766375,57.427742,114.855485,9781.858789
386.768887,19.142581,153.140646,9781.858789
386.771399,57.427742,133.998066,9934.999435
386.773911,-19.142581,95.712904,9762.716208
386.776423,133.998066,267.996131,9915.856854
386.778935,95.712904,95.712904,9781.858789
386.781447,57.427742,114.855485,9781.858789
386.783959,153.140646,153.140646,9954.142016
386.786471,57.427742,95.712904,9781.858789
386.788982,153.140646,344.566454,9839.286531
386.791493,153.140646,133.998066,9934.999435
386.794005,-19.142581,95.712904,9743.573627
386.796516,210.568389,306.281293,9934.999435
386.799027,57.427742,95.712904,9781.858789
386.801539,76.570323,210.568389,9896.714274
386.804050,133.998066,153.140646,10049.854920
386.806561,38.285162,114.855485,9667.003304
386.809073,153.140646,229.710970,9896.714274
386.811584,114.855485,114.855485,9877.571693
386.814095,114.855485,133.998066,9686.145885
386.816607,57.427742,267.996131,9973.284597
386.819118,114.855485,248.853550,9686.145885
386.821629,172.283227,325.423874,9877.571693
386.824141,76.570323,114.855485,9858.429112
386.826652,-38.285162,114.855485,9724.431046
386.829163,133.998066,267.996131,9973.284597
386.831675,38.285162,76.570323,9858.429112
386.834186,-19.142581,191.425808,9896.714274
386.836697,95.712904,191.425808,9954.142016
386.839209,76.570323,210.568389,9571.290400
386.841720,153.140646,306.281293,9896.714274
386.844231,172.283227,172.283227,9915.856854
386.846743,76.570323,76.570323,9724.431046
386.849254,133.998066,267.996131,9915.856854
386.851765,76.570323,76.570323,9839.286531
386.854277,19.142581,248.853550,9781.858789
386.856788,95.712904,248.853550,9954.142016
386.859299,19.142581,191.425808,9781.858789
386.861810,76.570323,210.568389,9934.999435
386.864322,76.570323,114.855485,9762.716208
386.866833,19.142581,153.140646,9801.001370
386.869344,114.855485,287.138712,9896.714274
386.871856,38.285162,153.140646,9667.003304
386.874367,76.570323,229.710970,9839.286531
386.876878,114.855485,172.283227,9877.571693
386.879390,38.285162,210.568389,9724.431046
386.881901,114.855485,267.996131,9934.999435
386.884412,114.855485,172.283227,9762.716208
386.886924,114.855485,95.712904,9801.001370
386.889434,153.140646,153.140646,10049.854920
386.891944,19.142581,114.855485,9762.716208
386.894454,76.570323,287.138712,9877.571693
386.896965,114.855485,191.425808,10011.569758
386.899475,38.285162,114.855485,9724.431046
386.901985,76.570323,191.425808,9877.571693
386.904495,76.570323,172.283227,9877.571693
386.907006,19.142581,248.853550,9839.286531
386.909516,153.140646,133.998066,9992.427178
386.912026,19.142581,95.712904,9743.573627
386.914536,76.570323,191.425808,9839.286531
386.917046,76.570323,76.570323,9896.714274
386.919557,38.285162,19.142581,9762.716208
386.922067,114.855485,229.710970,10011.569758
386.924577,76.570323,172.283227,9762.716208
386.927087,114.855485,114.855485,9839.286531
386.929598,114.855485,76.570323,10011.569758
386.932108,19.142581,95.712904,9686.145885
386.934618,191.425808,229.710970,9877.571693
386.937128,38.285162,133.998066,9858.429112
386.939638,-57.427742,76.570323,9839.286531
386.942149,76.570323,325.423874,9973.284597
386.944659,19.142581,191.425808,9781.858789
386.947169,76.570323,172.283227,9820.143950
386.949679,114.855485,114.855485,9839.286531
386.952190,38.285162,57.427742,9801.001370
386.954700,95.712904,191.425808,10011.569758
386.957210,76.570323,133.998066,9724.431046
386.959720,19.142581,267.996131,9801.001370
386.962230,95.712904,210.568389,9992.427178
386.964741,-19.142581,114.855485,9609.575562
386.967251,267.996131,172.283227,9915.856854
386.969761,76.570323,38.285162,10011.569758
386.972271,38.285162,76.570323,9762.716208
386.974782,114.855485,306.281293,9954.142016
386.977292,38.285162,114.855485,9724.431046
386.979802,38.285162,76.570323,9762.716208
386.982312,76.570323,172.283227,9915.856854
386.984823,38.285162,114.855485,9724.431046
386.987333,38.285162,325.423874,9877.571693
386.989754,76.570323,114.855485,9877.571693
386.992175,76.570323,114.855485,9839.286531
386.994595,191.425808,248.853550,9992.427178
386.997016,19.142581,95.712904,9686.145885
386.999437,95.712904,248.853550,9973.284597
387.001858,38.285162,210.568389,9934.999435
387.004279,38.285162,114.855485,9724.431046
387.006700,191.425808,267.996131,10011.569758
387.009121,114.855485,172.283227,9820.143950
387.011542,76.570323,210.568389,9820.143950
387.013963,95.712904,248.853550,9934.999435
387.016384,-19.142581,114.855485,9667.003304
387.018804,57.427742,210.568389,9934.999435
387.021225,57.427742,153.140646,9973.284597
387.023646,76.570323,133.998066,9743.573627
387.026067,210.568389,229.710970,9973.284597
387.028488,19.142581,153.140646,9801.001370
387.030909,76.570323,229.710970,9839.286531
387.033330,95.712904,172.283227,9877.571693
387.035751,114.855485,210.568389,9571.290400
387.038172,133.998066,287.138712,9934.999435
387.040593,19.142581,210.568389,9820.143950
387.043014,38.285162,76.570323,9820.143950
387.045434,57.427742,229.710970,10030.712339
387.047855,-0.000000,172.283227,9686.145885
387.050276,153.140646,248.853550,9877.571693
387.052697,76.570323,114.855485,9877.571693
387.055118,-0.000000,95.712904,9762.716208
387.057539,172.283227,191.425808,9954.142016
387.059960,57.427742,153.140646,9877.571693
387.062381,76.570323,287.138712,9820.143950
387.064802,114.855485,267.996131,9973.284597
387.067223,133.998066,114.855485,9571.290400
387.069643,133.998066,210.568389,9820.143950
387.072064,57.427742,133.998066,9992.427178
387.074485,57.427742,95.712904,9781.858789
387.076906,38.285162,325.423874,9839.286531
387.079327,19.142581,248.853550,9820.143950
387.081748,133.998066,172.283227,9839.286531
387.084169,76.570323,76.570323,9915.856854
387.086534,-19.142581,76.570323,9762.716208
387.088900,114.855485,153.140646,9934.999435
387.091266,76.570323,153.140646,9801.001370
387.093631,76.570323,210.568389,9877.571693
387.095997,95.712904,153.140646,9954.142016
387.098363,114.855485,76.570323,9609.575562
387.100728,114.855485,95.712904,9896.714274
387.103094,57.427742,191.425808,9954.142016
387.105460,-38.285162,210.568389,9686.145885
387.107825,57.427742,306.281293,9896.714274
387.110191,57.427742,95.712904,9781.858789
387.112556,57.427742,57.427742,9896.714274
387.114922,57.427742,153.140646,10049.854920
387.117288,-38.285162,172.283227,9705.288466
387.119653,76.570323,287.138712,9858.429112
387.122019,114.855485,133.998066,9934.999435
387.124385,57.427742,133.998066,9743.573627
387.126750,210.568389,287.138712,9877.571693
387.129116,114.855485,133.998066,9647.860723
387.131482,38.285162,153.140646,9877.571693
387.133847,95.712904,210.568389,10068.997501
387.136213,-38.285162,95.712904,9743.573627
387.138578,38.285162,267.996131,9839.286531
387.140944,191.425808,248.853550,10011.569758
387.143310,19.142581,191.425808,9781.858789
387.145675,-19.142581,267.996131,9839.286531
387.148041,76.570323,76.570323,9915.856854
387.150407,-0.000000,172.283227,9781.858789
387.152772,76.570323,210.568389,9877.571693
387.155138,133.998066,248.853550,9915.856854
387.157504,57.427742,344.566454,9724.431046
387.159869,38.285162,229.710970,9724.431046
387.162235,248.853550,248.853550,9896.714274
387.164600,153.140646,95.712904,9858.429112
387.166966,-57.427742,0.000000,9839.286531
387.169332,95.712904,76.570323,9992.427178
387.171697,76.570323,287.138712,9820.143950
387.174063,38.285162,325.423874,9839.286531
387.176429,229.710970,363.709035,9762.716208
387.178794,19.142581,19.142581,9724.431046
387.181205,38.285162,0.000000,9896.714274
387.183615,133.998066,76.570323,9954.142016
387.186026,19.142581,57.427742,9934.999435
387.188436,57.427742,306.281293,9781.858789
387.190847,114.855485,172.283227,9877.571693
387.193258,57.427742,114.855485,9896.714274
387.195668,153.140646,133.998066,9743.573627
387.198079,76.570323,57.427742,9934.999435
387.200489,76.570323,172.283227,9934.999435
387.202900,57.427742,248.853550,9705.288466
387.205310,76.570323,57.427742,9915.856854
387.207721,38.285162,95.712904,9801.001370
387.210131,57.427742,-76.570323,9954.142016
387.212542,95.712904,229.710970,9858.429112
387.214952,76.570323,363.709035,9705.288466
387.217363,38.285162,76.570323,9877.571693
387.219773,95.712904,95.712904,9915.856854
387.222184,-38.285162,57.427742,9839.286531
387.224594,114.855485,0.000000,9801.001370
387.227005,133.998066,229.710970,9762.716208
387.229416,114.855485,133.998066,9934.999435
387.231826,19.142581,248.853550,9896.714274
387.234237,-19.142581,325.423874,9858.429112
387.236647,19.142581,57.427742,10049.854920
387.239058,76.570323,210.568389,9877.571693
387.241468,191.425808,172.283227,9820.143950
387.243879,172.283227,172.283227,9743.573627
387.246289,76.570323,229.710970,9801.001370
387.248700,57.427742,76.570323,9992.427178
387.251110,38.285162,210.568389,9973.284597
387.253521,153.140646,325.423874,9896.714274
387.255931,19.142581,210.568389,9801.001370
387.258342,191.425808,287.138712,9762.716208
387.260752,57.427742,38.285162,9858.429112
387.263163,76.570323,172.283227,9839.286531
387.265574,153.140646,363.709035,9686.145885
387.267984,19.142581,153.140646,9781.858789
387.270395,57.427742,229.710970,9858.429112
387.272805,19.142581,287.138712,9934.999435
387.275216,38.285162,114.855485,9915.856854
387.277662,57.427742,229.710970,9934.999435
387.280105,57.427742,172.283227,9915.856854
387.282549,57.427742,172.283227,9896.714274
387.284993,57.427742,306.281293,9820.143950
387.287436,114.855485,153.140646,9973.284597
387.289880,57.427742,191.425808,9934.999435
387.292323,57.427742,344.566454,9839.286531
387.294767,95.712904,229.710970,9820.143950
387.297211,172.283227,325.423874,9762.716208
387.299654,19.142581,114.855485,9934.999435
387.302098,76.570323,210.568389,9839.286531
387.304542,95.712904,325.423874,9839.286531
387.306985,38.285162,172.283227,9915.856854
387.309429,76.570323,287.138712,9839.286531
387.311873,57.427742,172.283227,9877.571693
387.314316,19.142581,133.998066,9839.286531
387.316760,153.140646,306.281293,9781.858789
387.319203,76.570323,76.570323,9915.856854
387.321647,19.142581,133.998066,9820.143950
387.324091,57.427742,287.138712,9858.429112
387.326534,19.142581,153.140646,9858.429112
387.328978,-0.000000,267.996131,9801.001370
387.331422,133.998066,114.855485,9839.286531
387.333865,57.427742,114.855485,9896.714274
387.336309,95.712904,229.710970,9839.286531
387.338753,57.427742,133.998066,9954.142016
387.341196,19.142581,153.140646,9858.429112
387.343640,95.712904,248.853550,9934.999435
387.346084,95.712904,95.712904,9858.429112
387.348527,191.425808,248.853550,9781.858789
387.350971,57.427742,38.285162,9896.714274
387.353414,76.570323,114.855485,9877.571693
387.355858,191.425808,248.853550,9705.288466
387.358302,95.712904,95.712904,9896.714274
387.360745,57.427742,95.712904,9896.714274
387.363189,114.855485,95.712904,9896.714274
387.365633,95.712904,95.712904,9820.143950
387.368076,114.855485,210.568389,9762.716208
387.370520,57.427742,95.712904,9781.858789
387.372964,76.570323,114.855485,9858.429112
387.375363,95.712904,191.425808,9705.288466
387.377763,57.427742,57.427742,9896.714274
387.380162,19.142581,0.000000,9992.427178
387.382562,114.855485,172.283227,9934.999435
387.384962,76.570323,114.855485,9934.999435
387.387361,57.427742,306.281293,9781.858789
387.389761,153.140646,57.427742,9801.001370
387.392160,57.427742,114.855485,9896.714274
387.394560,114.855485,172.283227,9858.429112
387.396960,57.427742,95.712904,9896.714274
387.399359,57.427742,229.710970,9896.714274
387.401759,-57.427742,95.712904,9954.142016
387.404158,76.570323,114.855485,9820.143950
387.406558,153.140646,267.996131,9743.573627
387.408958,38.285162,0.000000,9915.856854
387.411357,76.570323,76.570323,9915.856854
387.413757,19.142581,191.425808,9858.429112
387.416156,76.570323,114.855485,9858.429112
387.418556,114.855485,267.996131,9743.573627
387.420956,38.285162,76.570323,9762.716208
387.423355,-57.427742,95.712904,9934.999435
387.425755,153.140646,287.138712,9724.431046
387.428154,57.427742,153.140646,9934.999435
387.430554,57.427742,306.281293,9820.143950
387.432954,19.142581,133.998066,9801.001370
387.435353,57.427742,153.140646,9934.999435
387.437753,76.570323,229.710970,9743.573627
387.440152,19.142581,133.998066,9896.714274
387.442552,76.570323,287.138712,9877.571693
387.444952,76.570323,363.709035,9667.003304
387.447351,76.570323,191.425808,9858.429112
387.449751,172.283227,287.138712,9820.143950
387.452150,57.427742,133.998066,9934.999435
387.454550,38.285162,76.570323,9877.571693
387.456950,57.427742,421.136778,9781.858789
387.459349,76.570323,210.568389,9877.571693
387.461749,57.427742,210.568389,9877.571693
387.464148,57.427742,287.138712,9896.714274
387.466548,76.570323,114.855485,9877.571693
387.468948,95.712904,325.423874,9705.288466
387.471320,76.570323,172.283227,9877.571693
387.473692,-57.427742,153.140646,9839.286531
387.476064,153.140646,344.566454,9801.001370
387.478437,76.570323,38.285162,9934.999435
387.480809,76.570323,248.853550,9781.858789
387.483181,19.142581,191.425808,9896.714274
387.485553,19.142581,248.853550,9858.429112
387.487925,95.712904,306.281293,9781.858789
387.490298,57.427742,133.998066,9954.142016
387.492670,19.142581,191.425808,9915.856854
387.495042,153.140646,287.138712,9801.001370
387.497414,19.142581,95.712904,9934.999435
387.499787,95.712904,229.710970,9762.716208
387.502159,-0.000000,76.570323,9896.714274
387.504531,76.570323,229.710970,9858.429112
387.506903,57.427742,325.423874,9781.858789
387.509275,-57.427742,95.712904,9934.999435
387.511648,76.570323,153.140646,9896.714274
387.514020,114.855485,114.855485,9877.571693
387.516392,19.142581,153.140646,9781.858789
387.518764,210.568389,248.853550,9781.858789
387.521137,38.285162,38.285162,9877.571693
387.523509,-0.000000,172.283227,9858.429112
387.525881,76.570323,210.568389,9820.143950
387.528253,114.855485,114.855485,9820.143950
387.530626,191.425808,95.712904,9877.571693
387.532998,76.570323,76.570323,9781.858789
387.535370,57.427742,95.712904,9858.429112
387.537742,57.427742,191.425808,9877.571693
387.540114,38.285162,19.142581,9934.999435
387.542487,38.285162,210.568389,9915.856854
387.544859,76.570323,229.710970,9762.716208
387.547231,38.285162,76.570323,9877.571693
387.549603,76.570323,38.285162,9896.714274
387.551976,38.285162,-38.285162,9801.001370
387.554348,38.285162,287.138712,9915.856854
387.556720,76.570323,325.423874,9686.145885
387.559092,76.570323,114.855485,9762.716208
387.561465,57.427742,95.712904,9820.143950
387.563837,19.142581,0.000000,9934.999435
387.566257,19.142581,95.712904,9934.999435
387.568676,57.427742,229.710970,9801.001370
387.571096,76.570323,114.855485,9820.143950
387.573516,19.142581,133.998066,9839.286531
387.575936,76.570323,172.283227,9820.143950
387.578356,95.712904,57.427742,9915.856854
387.580776,76.570323,172.283227,9877.571693
387.583196,-19.142581,248.853550,9781.858789
387.585615,19.142581,191.425808,9781.858789
387.588035,76.570323,191.425808,9801.001370
387.590455,114.855485,38.285162,9973.284597
387.592875,57.427742,133.998066,9934.999435
387.595295,38.285162,229.710970,9724.431046
387.597715,-0.000000,153.140646,9839.286531
387.600134,57.427742,191.425808,9934.999435
387.602554,19.142581,57.427742,9877.571693
387.604974,38.285162,76.570323,9877.571693
387.607394,114.855485,306.281293,9781.858789
387.609814,114.855485,210.568389,9858.429112
387.612234,57.427742,248.853550,9934.999435
387.614653,95.712904,287.138712,9839.286531
387.617073,76.570323,76.570323,9915.856854
387.619493,76.570323,229.710970,9858.429112
387.621913,95.712904,133.998066,9877.571693
387.624333,57.427742,114.855485,9801.001370
387.626753,191.425808,306.281293,9743.573627
387.629173,114.855485,133.998066,9934.999435
387.631592,38.285162,210.568389,9915.856854
387.634012,114.855485,287.138712,9858.429112
387.636432,-0.000000,38.285162,9877.571693
387.638852,153.140646,191.425808,9820.143950
387.641272,76.570323,114.855485,9858.429112
387.643692,95.712904,229.710970,9877.571693
387.646111,57.427742,287.138712,9858.429112
387.648531,57.427742,172.283227,9934.999435
387.650951,57.427742,306.281293,9839.286531
387.653371,57.427742,191.425808,9934.999435
387.655791,38.285162,133.998066,9858.429112
387.658211,153.140646,248.853550,9743.573627
387.660631,76.570323,76.570323,9915.856854
387.663087,114.855485,210.568389,9877.571693
387.665544,38.285162,363.709035,9820.143950
387.668001,-19.142581,248.853550,9858.429112
387.670458,76.570323,210.568389,9801.001370
387.672915,38.285162,210.568389,9915.856854
387.675372,38.285162,76.570323,9877.571693
387.677829,114.855485,210.568389,9820.143950
387.680286,19.142581,95.712904,9877.571693
387.682743,76.570323,191.425808,9781.858789
387.685200,76.570323,229.710970,9877.571693
387.687657,19.142581,191.425808,9896.714274
387.690114,133.998066,229.710970,9820.143950
387.692571,57.427742,-57.427742,9954.142016
387.695028,38.285162,76.570323,9820.143950
387.697484,57.427742,191.425808,9743.573627
387.699941,76.570323,114.855485,9877.571693
387.702398,95.712904,248.853550,9877.571693
387.704855,76.570323,114.855485,9877.571693
387.707312,38.285162,153.140646,9915.856854
387.709769,76.570323,325.423874,9896.714274
387.712226,-38.285162,57.427742,9973.284597
387.714683,-19.142581,38.285162,9858.429112
387.717140,114.855485,210.568389,9839.286531
387.719597,57.427742,57.427742,9724.431046
387.722054,133.998066,191.425808,9762.716208
387.724511,114.855485,172.283227,9934.999435
387.726968,38.285162,76.570323,9839.286531
387.729425,19.142581,248.853550,9801.001370
387.731881,95.712904,95.712904,9896.714274
387.734338,76.570323,114.855485,9801.001370
387.736795,153.140646,95.712904,9801.001370
387.739252,57.427742,95.712904,9820.143950
387.741709,95.712904,172.283227,9762.716208
387.744166,76.570323,114.855485,10068.997501
387.746623,19.142581,229.710970,9992.427178
387.749080,153.140646,287.138712,9781.858789
387.751537,114.855485,210.568389,9877.571693
387.753994,57.427742,57.427742,9724.431046
387.756451,95.712904,95.712904,9858.429112
387.758908,57.427742,133.998066,9934.999435
387.761393,57.427742,306.281293,9781.858789
387.763877,76.570323,172.283227,9858.429112
387.766362,57.427742,95.712904,9896.714274
387.768847,114.855485,153.140646,9762.716208
387.771332,133.998066,38.285162,9877.571693
387.773817,57.427742,229.710970,9858.429112
387.776302,38.285162,210.568389,9915.856854
387.778787,-0.000000,133.998066,9839.286531
387.781272,57.427742,248.853550,9743.573627
387.783757,76.570323,76.570323,9915.856854
387.786242,38.285162,38.285162,9877.571693
387.788726,38.285162,153.140646,9896.714274
387.791211,19.142581,153.140646,9820.143950
387.793696,57.427742,287.138712,9781.858789
387.796181,19.142581,191.425808,9839.286531
387.798666,114.855485,95.712904,9839.286531
387.801151,114.855485,229.710970,9820.143950
387.803636,114.855485,191.425808,9934.999435
387.806121,-0.000000,95.712904,9934.999435
387.808606,76.570323,344.566454,9839.286531
387.811091,19.142581,133.998066,9781.858789
387.813575,57.427742,172.283227,9858.429112
387.816060,153.140646,191.425808,9934.999435
387.818545,38.285162,19.142581,9820.143950
387.821030,76.570323,325.423874,9915.856854
387.823515,76.570323,153.140646,9877.571693
387.826000,19.142581,191.425808,9781.858789
387.828485,114.855485,267.996131,9915.856854
387.830970,57.427742,57.427742,9839.286531
387.833455,114.855485,229.710970,9820.143950
387.835940,57.427742,114.855485,9820.143950
387.838424,19.142581,248.853550,9858.429112
387.840909,153.140646,401.994197,9858.429112
387.843394,153.140646,95.712904,9781.858789
387.845879,133.998066,172.283227,9858.429112
387.848364,-19.142581,153.140646,9992.427178
387.850849,-19.142581,133.998066,9858.429112
387.853334,95.712904,344.566454,9801.001370
387.855819,95.712904,287.138712,9839.286531
387.858304,95.712904,114.855485,9762.716208
387.860811,95.712904,172.283227,9934.999435
387.863318,76.570323,95.712904,9820.143950
387.865825,-19.142581,267.996131,9858.429112
387.868332,-0.000000,172.283227,9934.999435
387.870839,114.855485,114.855485,9877.571693
387.873346,153.140646,287.138712,9781.858789
387.875853,153.140646,95.712904,9858.429112
387.878360,114.855485,248.853550,9934.999435
387.880867,19.142581,153.140646,9820.143950
387.883374,-19.142581,210.568389,9915.856854
387.885881,57.427742,229.710970,9781.858789
387.888388,-19.142581,95.712904,9934.999435
387.890895,114.855485,114.855485,9877.571693
387.893402,38.285162,191.425808,9667.003304
387.895909,19.142581,76.570323,9839.286531
387.898416,114.855485,267.996131,9954.142016
387.900923,-19.142581,210.568389,9915.856854
387.903430,57.427742,114.855485,9858.429112
387.905937,95.712904,210.568389,9762.716208
387.908444,57.427742,95.712904,9801.001370
387.910951,153.140646,172.283227,9839.286531
387.913458,76.570323,76.570323,9915.856854
387.915965,95.712904,287.138712,9877.571693
387.918472,19.142581,382.851616,9724.431046
387.920979,57.427742,76.570323,9877.571693
387.923486,95.712904,57.427742,9896.714274
387.925993,57.427742,19.142581,9820.143950
387.928500,153.140646,19.142581,9973.284597
387.931007,38.285162,344.566454,9877.571693
387.933514,19.142581,287.138712,9762.716208
387.936021,76.570323,114.855485,9839.286531
387.938529,95.712904,76.570323,9839.286531
387.941036,57.427742,-57.427742,9973.284597
387.943543,38.285162,76.570323,9839.286531
387.946050,76.570323,325.423874,9705.288466
387.948557,114.855485,267.996131,9724.431046
387.951064,95.712904,153.140646,9762.716208
387.953571,19.142581,57.427742,9992.427178
387.956078,57.427742,57.427742,9896.714274
387.958585,76.570323,267.996131,9724.431046
387.961107,76.570323,248.853550,9896.714274
387.963630,76.570323,172.283227,9820.143950
387.966153,57.427742,95.712904,9858.429112
387.968675,76.570323,153.140646,9877.571693
387.971198,114.855485,210.568389,9762.716208
387.973720,19.142581,133.998066,9896.714274
387.976243,76.570323,210.568389,9877.571693
387.978765,133.998066,248.853550,9801.001370
387.981288,133.998066,172.283227,9877.571693
387.983811,57.427742,153.140646,9934.999435
387.986333,95.712904,191.425808,9743.573627
387.988856,76.570323,210.568389,9801.001370
387.991378,95.712904,248.853550,9934.999435
387.993901,76.570323,76.570323,9915.856854
387.996424,229.710970,172.283227,9915.856854
387.998946,76.570323,191.425808,9781.858789
388.001469,76.570323,172.283227,9762.716208
388.003991,172.283227,191.425808,9896.714274
388.006514,-19.142581,95.712904,10049.854920
388.009037,19.142581,153.140646,9896.714274
388.011559,95.712904,421.136778,9743.573627
388.014082,-0.000000,191.425808,9781.858789
388.016604,57.427742,114.855485,9801.001370
388.019127,95.712904,114.855485,9877.571693
388.021650,57.427742,114.855485,9896.714274
388.024172,95.712904,306.281293,9839.286531
388.026695,38.285162,172.283227,9896.714274
388.029217,76.570323,229.710970,9762.716208
388.031740,191.425808,191.425808,9781.858789
388.034263,76.570323,76.570323,9915.856854
388.036785,95.712904,172.283227,9896.714274
388.039308,76.570323,191.425808,9820.143950
388.041830,-0.000000,172.283227,9896.714274
388.044353,95.712904,267.996131,9686.145885
388.046876,57.427742,57.427742,9896.714274
388.049398,38.285162,95.712904,9896.714274
388.051921,76.570323,229.710970,9934.999435
388.054443,76.570323,191.425808,9762.716208
388.056966,76.570323,229.710970,9877.571693
388.059489,-0.000000,191.425808,9896.714274
388.061969,114.855485,76.570323,9915.856854
388.064450,229.710970,248.853550,9820.143950
388.066931,57.427742,133.998066,9934.999435
388.069412,38.285162,172.283227,9973.284597
388.071893,19.142581,229.710970,9762.716208
388.074374,-38.285162,172.283227,9801.001370
388.076855,114.855485,267.996131,9915.856854
388.079336,95.712904,114.855485,9839.286531
388.081817,114.855485,95.712904,9858.429112
388.084298,19.142581,191.425808,9801.001370
388.086779,38.285162,76.570323,9762.716208
388.089260,95.712904,229.710970,9877.571693
388.091741,133.998066,114.855485,9896.714274
388.094221,95.712904,38.285162,9839.286531
388.096702,114.855485,287.138712,9762.716208
388.099183,57.427742,114.855485,9839.286531
388.101664,95.712904,133.998066,9954.142016
388.104145,114.855485,229.710970,9858.429112
388.106626,38.285162,76.570323,9858.429112
388.109107,153.140646,172.283227,9820.143950
388.111588,76.570323,76.570323,9915.856854
388.114069,114.855485,114.855485,9858.429112
388.116550,57.427742,248.853550,9743.573627
388.119031,-19.142581,133.998066,9896.714274
388.121512,95.712904,76.570323,9915.856854
388.123993,-0.000000,191.425808,9781.858789
388.126474,76.570323,172.283227,9820.143950
388.128954,153.140646,229.710970,9724.431046
388.131435,-19.142581,133.998066,9858.429112
388.133916,95.712904,38.285162,9915.856854
388.136397,38.285162,210.568389,9724.431046
388.138878,114.855485,191.425808,9877.571693
388.141359,95.712904,153.140646,9915.856854
388.143840,19.142581,153.140646,9801.001370
388.146321,76.570323,114.855485,9877.571693
388.148802,38.285162,248.853550,9858.429112
388.151283,19.142581,95.712904,9954.142016
388.153764,191.425808,210.568389,9877.571693
388.156245,76.570323,267.996131,9609.575562
388.158726,114.855485,172.283227,9801.001370
388.161229,153.140646,153.140646,9934.999435
388.163733,-19.142581,95.712904,9896.714274
388.166236,57.427742,172.283227,9915.856854
388.168739,95.712904,210.568389,9801.001370
388.171242,57.427742,114.855485,9896.714274
388.173746,95.712904,172.283227,9839.286531
388.176249,57.427742,95.712904,9801.001370
388.178752,114.855485,210.568389,9839.286531
388.181255,76.570323,191.425808,9762.716208
388.183759,19.142581,133.998066,9896.714274
388.186262,76.570323,114.855485,9877.571693
388.188765,19.142581,191.425808,9781.858789
388.191269,76.570323,172.283227,9820.143950
388.193772,191.425808,229.710970,9877.571693
388.196275,19.142581,306.281293,9743.573627
388.198778,38.285162,248.853550,9877.571693
388.201282,95.712904,210.568389,9762.716208
388.203785,-38.285162,0.000000,9934.999435
388.206288,95.712904,210.568389,9877.571693
388.208791,172.283227,267.996131,9762.716208
388.211295,38.285162,191.425808,9915.856854
388.213798,114.855485,287.138712,9896.714274
388.216301,-57.427742,191.425808,9896.714274
388.218805,-0.000000,153.140646,9858.429112
388.221308,76.570323,267.996131,9667.003304
388.223811,57.427742,95.712904,9896.714274
388.226314,57.427742,153.140646,9877.571693
388.228818,57.427742,153.140646,9877.571693
388.231321,95.712904,153.140646,9839.286531
388.233824,57.427742,153.140646,9877.571693
388.236327,-95.712904,114.855485,9877.571693
388.238831,76.570323,114.855485,9877.571693
388.241334,114.855485,114.855485,9801.001370
388.243837,76.570323,38.285162,9896.714274
388.246341,38.285162,76.570323,9801.001370
388.248844,57.427742,229.710970,9858.429112
